acc_x, acc_y, angular_z, stamp, 
-0.04754496356703456, 0.00019856874907387616, -0.0001515235212136446, 87525000000
-0.04464899295362591, 0.011910360860798764, -0.00018786186032355819, 87530000000
-0.08127380712399315, 0.017250860966155687, 8.0125705619955e-05, 87535000000
-0.03944211195403381, 0.03456098978889209, 8.149824048825301e-07, 87540000000
-0.05255834177221253, -0.029429531563501407, 0.00035442821565489813, 87545000000
-0.050866636132349, 0.004003189012891016, -0.00019311685682118465, 87550000000
-0.07009542817702089, -0.011290374502854651, 0.00011130279262256902, 87555000000
-0.0891808109159951, 0.005498919214091763, -0.00018305672703115825, 87560000000
-0.0645865535451893, 0.03604994134177576, 1.9168663993200764e-06, 87565000000
-0.05480750798053263, -0.015174793354271668, -2.017620010559455e-05, 87570000000
-0.07053943240539762, -0.009096395528952549, -0.00011785050806482833, 87575000000
-0.023455231915041296, -0.017163263496765863, -3.633151039644165e-05, 87580000000
-0.021770356240005062, 0.01931395437399729, -0.0001450804836020625, 87585000000
-0.07571486264478705, -0.044953702544555975, 0.0001296076854730915, 87590000000
-0.06610921422417626, 0.018540021766829826, -0.00023269066984304133, 87595000000
-0.06887742148559592, 0.0022095530063894232, -7.356736439208803e-05, 87600000000
-0.07464403820517664, 0.003673695499545439, 0.00010965082454700893, 87605000000
-0.022384757646588593, -0.028913818306895, -0.0003521746809225794, 87610000000
-0.05966358723278337, 0.03212187702938352, 0.000311192178905705, 87615000000
-0.08558181457229277, 0.038449021619920316, 4.376608076810866e-05, 87620000000
-0.055642848415373744, 0.006027486897416339, -1.6306626270840552e-05, 87625000000
-0.07384400760106855, -0.012325312269334305, -0.00015718426035130382, 87630000000
-0.0675840647769389, -0.015633834244585237, 0.00031604386781818733, 87635000000
-0.03269914712214105, 0.032820346473170774, 0.0001573857087258403, 87640000000
-0.05768063144144795, 0.01152492615848212, -0.00018833148551266409, 87645000000
-0.05939996886342749, -0.025178060563611455, -0.00010313524147162309, 87650000000
-0.08399344671758957, 0.013250906286398273, 0.00024473846964668215, 87655000000
-0.011617737192692594, -0.022213544321080362, -9.718211324706017e-05, 87660000000
5.388826037316782, 0.024275770170932905, -0.00024076856237715944, 87665000000
1.2691629938508444, -0.02005341538860564, -1.0234849582789587e-05, 87670000000
-0.06671279901946052, -0.0005145234388309636, -0.00021162142646640906, 87675000000
-0.1829289031420653, -0.012245596764075183, -0.000718145336379908, 87680000000
-0.04854880624358424, 0.024407550962910626, 4.167666371131027e-05, 87685000000
0.046484085047028924, -0.00464889006897991, 3.7028078974840934e-05, 87690000000
-0.18042046364927464, 0.01869098856783009, -4.760243242972951e-05, 87695000000
5.975334999074723, -0.010771845686190282, 0.001874063291905061, 87700000000
0.02008470465251283, -0.013697547245317444, 0.008840334463684126, 87706000000
-0.12880090434108818, 0.0025858126206102505, 0.01487198628666411, 87712000000
-0.07028160600788849, -0.007148056876179006, 0.027829239848338495, 87717000000
-0.04654857404563153, 0.035583189754176625, 0.03860354663861591, 87722000000
-0.06569847301545262, -0.0006371465178271023, 0.04709730080581893, 87727000000
-0.06382781214457686, 0.003085330219194068, 0.058806658433181065, 87732000000
2.8134297004110342, 0.020059055342984557, 0.09210568256289918, 87737000000
-0.13181050163355343, 0.034828949997831156, 0.12274709533370894, 87742000000
-0.08796547241207021, 0.03747668914013774, 0.165237243511945, 87747000000
-0.09031744665011068, 0.03929754536895032, 0.2110278893614636, 87752000000
-0.057328193567373564, 0.030158091772477014, 0.2558010167183844, 87757000000
-0.0367232654949382, -0.004976600137277699, 0.2974771632283786, 87762000000
2.710650989760359, 0.024146013820081552, 0.3363417852343051, 87767000000
0.5118699866122258, 0.011152739664306162, 0.3877114256317473, 87772000000
-0.09134789458100198, 0.03425247191578314, 0.4504197188180045, 87778000000
-0.07573912313632111, 0.07052480293878302, 0.5005374414599087, 87783000000
-0.0574695611913302, 0.04276187748153444, 0.5449566618441537, 87788000000
-0.05736305469562067, 0.06865106832333195, 0.5816802111587108, 87793000000
-0.02269024982007017, 0.04458153392869543, 0.6080638569174761, 87798000000
0.42001050081606833, 0.06152862410385772, 0.6250468345875907, 87803000000
-0.04788735444490206, 0.07240335025663229, 0.6327004099591811, 87808000000
-0.04799080994714517, 0.08543393394522378, 0.6323657024915161, 87813000000
-0.01273066307124672, 0.0479460319583345, 0.6219112387918238, 87818000000
-0.05199063212408054, 0.07550689894059852, 0.6051691012897409, 87823000000
-0.07261656607572786, 0.08440800810547008, 0.5828853139231978, 87828000000
-0.04078258990944905, 0.05049278063811562, 0.5571763933264424, 87833000000
-0.016525395697350967, 0.05572003645158483, 0.5297739388525398, 87838000000
-0.04390208650783776, 0.055781258425577504, 0.5027045116820096, 87843000000
-0.05365472951002218, 0.061590426977476714, 0.4771021146260673, 87848000000
-0.048384829554819396, 0.0857654237673067, 0.4559864811323999, 87853000000
-0.02590200681017469, 0.0253731034868854, 0.43885798451537117, 87858000000
-0.05563771304419654, 0.004258803249021302, 0.42548979271163434, 87863000000
-0.050180395949765394, 0.04602884456586041, 0.4214316137512662, 87868000000
-0.04573422394691861, 0.0321839816359519, 0.4209371243556458, 87873000000
-0.0773342095141149, 0.05600400381125739, 0.42704062385733066, 87878000000
-0.06390665022880308, 0.05686283708414702, 0.4346896499315104, 87883000000
-0.055007891562895345, 0.03951121174310325, 0.44711405706108714, 87888000000
-0.07443776622414848, 0.03865756255226533, 0.4619430043376815, 87893000000
-0.019506793143833877, 0.047811292998342664, 0.4841176745185815, 87899000000
-0.062326943011824426, 0.04746237808462012, 0.49681323153586326, 87904000000
-0.00372685123278544, 0.0787044589574727, 0.5119116717638752, 87909000000
-0.018476209423990538, 0.04633227019929918, 0.5245884926847297, 87914000000
-0.04633788070871405, 0.06649638252302374, 0.5345581342385716, 87919000000
-0.019566312166557777, 0.05517740223590423, 0.5429711099762391, 87924000000
-0.0678608956313326, 0.016748580625008926, 0.5455665053894497, 87929000000
-0.0400088090410123, 0.039371978566548636, 0.5463533242540529, 87934000000
-0.0320840940632783, 0.04257536742698855, 0.5433362736287569, 87939000000
-0.06951566519550825, 0.060258080706896984, 0.5388139982639369, 87944000000
-0.04437072546832397, 0.03425595846493201, 0.5316667559129924, 87949000000
-0.045402878782638975, 0.021211858792046564, 0.5231623254649376, 87954000000
-0.062339642339891095, 0.005498010598714541, 0.5119122799131801, 87959000000
-0.08389843074226172, 0.020281342359267943, 0.5044543835648656, 87964000000
-0.015423240070907777, 0.03410693785677604, 0.49567789059474177, 87969000000
-0.026406381134459752, 0.003938706507101999, 0.4875850125537648, 87974000000
-0.032219144218724786, 0.029975865346393044, 0.4802138336174275, 87979000000
-0.06016900363765841, 0.037687700849075585, 0.4769886785114958, 87984000000
-0.029257374234247627, 0.055987339714256984, 0.4735929679797982, 87989000000
-0.045534173241977005, 0.01796833381078017, 0.4724566716674697, 87994000000
-0.05271664478572771, 0.028535401269096233, 0.4741588334218642, 87999000000
-0.03380477715691434, 0.06642295679832547, 0.4761613449271792, 88004000000
-0.028332828116504918, 0.0669461934369074, 0.4804287338924808, 88009000000
-0.029641039503162287, 0.04735962201545845, 0.48524395025561784, 88014000000
-0.029357608582767696, 0.07186365664859445, 0.4904585554593638, 88019000000
-0.03771383395797939, 0.03782629595583432, 0.49589203017565725, 88024000000
-0.07291391995354356, 0.04882818957832323, 0.500968861081614, 88029000000
-0.018393792001383608, 0.0670672153407124, 0.5058122405825209, 88034000000
-0.021620319794817777, 0.04168434761129257, 0.5098334136238765, 88039000000
-0.08654680495890951, 0.06878956691415103, 0.5130904323045977, 88044000000
-0.04955130590884703, 0.05537962050297552, 0.5148053541758744, 88049000000
-0.024402314314902338, 0.027694453191219628, 0.5154384937703551, 88054000000
-0.0696829640380788, 0.06449694466473402, 0.5150308261147829, 88059000000
-0.04165330519363109, 0.05127583906128486, 0.5134671934557856, 88064000000
-0.08149632058703124, 0.044635149226070044, 0.5119882913390577, 88069000000
-0.03687443688176849, 0.044104173771714564, 0.5093619391953214, 88074000000
-0.0568957591461332, 0.03747379874035928, 0.5064007360118665, 88079000000
-0.06930728719827087, 0.053329782511047835, 0.5030424140631948, 88084000000
-0.06983214354274486, 0.05856695301032523, 0.5000212575658947, 88089000000
-0.058805342153280926, 0.04798103082954237, 0.49740015354651174, 88094000000
-0.06020518966611199, 0.06483899681129755, 0.49509965425313235, 88099000000
-0.04525111776201142, 0.04820762086794644, 0.4926659591335269, 88104000000
-0.05223649188730118, 0.07799430915925464, 0.49157990949366487, 88109000000
-0.046946634419708144, 0.06425244797498994, 0.4906947129773495, 88114000000
-0.0413075112840932, 0.056900684804646565, 0.4908235588294147, 88119000000
-0.023968773718134995, 0.02935864475245009, 0.49128077746791265, 88124000000
-0.05134666427595547, 0.04011133464267176, 0.4923697237478883, 88129000000
-0.06375696633168823, 0.03766005411233453, 0.49426194970459897, 88134000000
-0.06426813766150988, 0.0655966564214344, 0.49580648814586786, 88139000000
-0.08252037537401993, 0.06387660106311535, 0.49718869981821107, 88144000000
-0.05590706027912229, 0.05843524538813928, 0.49925681071568795, 88149000000
-0.04593668901462856, 0.07702568324767922, 0.5008651254301313, 88154000000
0.025999157770074846, 0.04218613899186631, 0.5025900432955757, 88159000000
-0.1471631361594201, 0.026953199301065812, 0.5033973068932487, 88164000000
-0.05682923573137411, 0.008722322083098241, 0.504466964459041, 88169000000
0.01006914608569829, 0.06865610777207794, 0.5050479103499407, 88174000000
-0.1625270312966646, 0.04583742432522876, 0.5050191444418997, 88179000000
-0.0601554874188013, 0.06446783733037621, 0.5046913181014955, 88184000000
0.10699201869990238, 0.08399221361595811, 0.5043037637891309, 88189000000
-0.17057283225272898, 0.02162777379940528, 0.5036458751204675, 88194000000
0.054664409621341635, 0.05796904072880603, 0.502540716490938, 88199000000
-0.11887597643108865, 0.005051644194062857, 0.5012381143296042, 88204000000
-0.0859096518795438, 0.02489407080607531, 0.5004397610437159, 88209000000
0.06079018230018101, 0.05308155009763399, 0.49923517779112464, 88214000000
-0.1862671231662024, -0.029226282579122992, 0.49850394418884836, 88219000000
-0.06416866224380334, 0.018273538420807717, 0.49791910757734265, 88224000000
0.0491636229195507, 0.10142262420598085, 0.49733067308492285, 88229000000
-0.1877898467535667, 0.008993323812337198, 0.49673855965353464, 88234000000
0.07877682959683942, 0.08568995472211312, 0.49675728268570446, 88239000000
-0.05570089579055634, 0.06318586741646529, 0.49702741261276057, 88244000000
-0.19709607677595803, -0.013676604741036453, 0.49705757885384394, 88249000000
0.051051264653071915, 0.10665229427478001, 0.49736832360992483, 88254000000
-0.047998165748905586, 0.03155524479980525, 0.49839772660980014, 88259000000
-0.1516690419442737, 0.0216505817716831, 0.4986654515185009, 88264000000
0.06969302318780839, 0.09295018619829047, 0.49966256458930003, 88269000000
-0.08295995528875977, 0.058584221618343875, 0.5004184526903545, 88274000000
-0.1667980937334069, 0.0022648331357803995, 0.5002558638098807, 88279000000
0.056245736561852076, 0.10046664288237821, 0.5008001013873471, 88284000000
-0.07859806571492671, 0.03149120907366525, 0.5014038310522803, 88289000000
-0.19551365955406422, 0.005580190103364092, 0.5017113706152316, 88294000000
0.09331062957075326, 0.10789994054689624, 0.501515213392425, 88299000000
-0.0620832257307505, 0.019549880111437205, 0.5018391196792625, 88304000000
-0.19036952713573924, -0.0009583297655153793, 0.5013893971800355, 88309000000
0.06512765757208333, 0.09451607040866755, 0.501339892164847, 88314000000
-0.06131931163411094, 0.08717586486739616, 0.5009644984151205, 88319000000
-0.03699059399546549, 0.045916166879730186, 0.5004443598135025, 88324000000
-0.05194833575607972, 0.037629689614594446, 0.500266213152126, 88329000000
-0.07004089809038758, 0.055047836413619836, 0.5000532062317986, 88334000000
-0.0682373569683018, 0.03644971010547645, 0.49951910368553887, 88339000000
-0.07146170867938212, 0.014187774466735338, 0.4995176334799551, 88344000000
-0.08169579163922047, 0.07474416427258283, 0.49871953600275293, 88349000000
-0.1834595184340871, 0.000920654111460608, 0.499103461205424, 88354000000
0.1353765446297414, 0.14366679829152545, 0.4989051047274633, 88359000000
-0.0672677473099276, 0.013998724239297121, 0.4987389318299661, 88364000000
-0.2594138538971983, -0.01891651265944369, 0.49870210023413103, 88369000000
0.04571596145435108, 0.08698086638089975, 0.49930427681018286, 88374000000
-0.22071696468845675, -0.016033236584784644, 0.4990864797333672, 88379000000
0.14718108722863435, 0.13718348428852742, 0.49930383697852226, 88384000000
-0.17272331498734217, 0.00120977215912226, 0.4996769554742347, 88389000000
0.07134403234507791, 0.09835103209700868, 0.5000242858252611, 88394000000
-0.07134012106774994, 0.03543593372704198, 0.5000805800491587, 88399000000
-0.23082793521636952, -0.009549506961170465, 0.5006867309727601, 88404000000
0.08323552208716516, 0.10659095903428448, 0.5003305682911227, 88409000000
-0.27544136041235184, -0.03596299637542452, 0.500731249334519, 88414000000
0.09140248304233825, 0.13636977647839355, 0.5004893797091153, 88419000000
-0.0887234327915018, 0.04397856050110215, 0.5003849540319569, 88424000000
-0.22215776200566822, 0.014514231708738116, 0.5006426668579026, 88429000000
0.09917847716152986, 0.1304982062382103, 0.5004738390843898, 88434000000
-0.22748669434025515, -0.011430174996823587, 0.5006371797232565, 88439000000
-0.055792012666227984, 0.015174892270115689, 0.5001091187959508, 88444000000
0.13115387534568881, 0.1261561846980018, 0.5002564916194747, 88449000000
-0.2534140698974984, 0.0005726102773758214, 0.5003914351737736, 88454000000
-0.05233322433831598, 0.08198176796789705, 0.49984581636387804, 88459000000
0.09348103889606227, 0.13170678289726565, 0.49942036256875166, 88464000000
-0.22127294176476098, -0.03736718035661825, 0.49959359487372507, 88469000000
0.11544864133739931, 0.15203060705669064, 0.499900766075375, 88474000000
-0.20490997361078345, -0.0043359829500965105, 0.49914996237434645, 88479000000
-0.03795051643522316, 0.05566668705103383, 0.4995773716850592, 88484000000
-0.051367500290837684, 0.05730168941902379, 0.4994261403249574, 88489000000
-0.04749464901353244, 0.06441141054163826, 0.49956969235626447, 88494000000
-0.050812380252707665, 0.04507349697269938, 0.4998182461268096, 88499000000
-0.07999954856631904, 0.08527190196732937, 0.5000814121464218, 88504000000
0.14301809653010691, 0.10029632932197494, 0.4995935226824665, 88509000000
-0.260696460366763, -0.015895365504170214, 0.4997674133343628, 88514000000
-0.07741444989067273, 0.06609793402274027, 0.4996865546118955, 88519000000
-0.05665126899815518, 0.046221978695210504, 0.500106670419, 88524000000
-0.05262530746020289, 0.04182432540058274, 0.5002505110616425, 88529000000
-0.046433438713211886, 0.04260857473219934, 0.4998078640549385, 88534000000
-0.08869344074391938, 0.05814045675289063, 0.49981560208307996, 88539000000
-0.035809770135965174, 0.04836544665013767, 0.49970146017251443, 88544000000
-0.04321295589795535, 0.07498412028552763, 0.4998725290528382, 88549000000
-0.03880680792775927, 0.036165927974366574, 0.5000291723862114, 88554000000
-0.029100756995981296, 0.05208220185508839, 0.49955466681878713, 88559000000
-0.05974794570889605, 0.050510147514596794, 0.500341638750363, 88564000000
-0.04591013420673742, 0.07990587693701179, 0.499980858632701, 88569000000
-0.03725033245779316, 0.05512120378655787, 0.49980472764080813, 88574000000
-0.03366952070656188, 0.06428080944094358, 0.49999711008897035, 88579000000
-0.059113355974306274, 0.07036825458539374, 0.4994494840678859, 88584000000
-0.029356306851695692, 0.010246115535864644, 0.5001383341566928, 88589000000
-0.05055033163052564, 0.05592707970285709, 0.4998659675185743, 88594000000
-0.04457060829907966, 0.0570172563567804, 0.5000427875495209, 88599000000
-0.02837275319906793, 0.045632285363246324, 0.4999160849446679, 88604000000
-0.05487212830198971, 0.054734484724176344, 0.49961353067157, 88609000000
-0.050287198832767735, 0.05378404354907538, 0.4998823625848845, 88614000000
-0.04957322602731094, 0.062192890311989595, 0.4997860370936214, 88619000000
-0.03185123340452145, 0.03142970661879235, 0.5001639652882077, 88624000000
-0.03522593025130979, 0.0473905200758436, 0.4999906255422422, 88629000000
-0.05156485623266973, 0.05404519372950303, 0.5001803300887976, 88634000000
-0.07134448875666621, 0.039425686335532006, 0.49988677078208443, 88639000000
-0.03237075438215647, 0.05751049527101242, 0.5001742402401048, 88644000000
-0.02544590960253613, 0.03890555055640471, 0.5000826263237964, 88649000000
-0.05283185362518863, 0.04510736204751745, 0.49993712468050966, 88654000000
-0.0473725941419117, 0.05955843284691326, 0.4998608220771447, 88659000000
-0.06298521396726242, 0.06566251817176469, 0.5002564566867846, 88664000000
-0.04795847723525391, 0.03735030106714065, 0.49987372156440946, 88669000000
-0.02740547397789256, 0.04032568757356683, 0.5002785881823638, 88674000000
-0.0456948421270891, 0.04956215599904498, 0.49999547856070153, 88679000000
-0.06733342329778741, 0.08288448843377055, 0.49960594518408463, 88684000000
-0.05877351359210593, 0.05987426345444395, 0.4999282353038636, 88689000000
-0.03535594061564841, 0.04593691031537053, 0.499970035411752, 88694000000
-0.024304404880935698, 0.06513823797864354, 0.49994111411232256, 88699000000
-0.059534042678797125, 0.05280079165220264, 0.49975759833294436, 88704000000
-0.04867687942859469, 0.0464668146683752, 0.4999334515660542, 88709000000
-0.0561312102891684, 0.08052955508080456, 0.5000160068755549, 88714000000
-0.047275164782261285, 0.02792917867620432, 0.4999724105779772, 88719000000
-0.06085038537958, 0.05408623009362936, 0.4998540431605596, 88724000000
-0.03853597059584586, 0.07286999501605246, 0.5000757540802522, 88729000000
-0.08568292368608055, 0.06097777205141845, 0.4998948800437014, 88734000000
-0.021410032359935615, 0.049633548249894216, 0.4997444347470393, 88739000000
-0.04458208395633922, 0.061045070720705356, 0.5000469225975436, 88744000000
-0.05330706646151122, 0.07870021454033363, 0.5002677841688044, 88749000000
-0.07370471315453206, 0.05536175941637812, 0.4995935687457234, 88754000000
-0.034658455629215865, 0.08127235550000733, 0.4999243449081812, 88759000000
-0.0541753901454078, 0.04062443830941612, 0.49994502450792805, 88764000000
-0.059656569250779515, 0.0176611839067206, 0.5001137209707627, 88769000000
-0.020183876589843653, 0.07289658742899637, 0.5001618406163109, 88774000000
-0.07493746593245926, 0.04770384660498502, 0.5001406460570618, 88779000000
-0.043378982574096905, 0.039781741200905135, 0.500075501247858, 88784000000
-0.02693698709676797, 0.06514764584833645, 0.49947277307358334, 88789000000
-0.04417780004008404, 0.049470158427558884, 0.5000018531648195, 88794000000
-0.03903175041837887, 0.06863955248000042, 0.49967056604190463, 88799000000
0.025363444923736655, 0.12837282562123722, 0.4998365797676457, 88804000000
-0.08494590599898252, -0.006880350131007226, 0.49970589223003375, 88809000000
-0.03618855372533269, 0.05501734189962172, 0.49969198691546995, 88814000000
-0.03521459922024426, 0.07019291995878016, 0.5000909631941208, 88819000000
-0.04915009122056715, 0.06529739982814552, 0.49990226208074506, 88824000000
-0.056735376183104834, 0.05716537806707725, 0.49977304382611404, 88829000000
-0.014378806241137888, 0.060950271715573545, 0.4998302665471346, 88834000000
-0.09344300464625935, -0.014222181409467015, 0.4996231385576115, 88839000000
-0.05080970618735739, 0.07573048175247443, 0.4997896772459554, 88844000000
-0.008621845476147553, 0.11965070179635276, 0.49972416558558036, 88849000000
-0.13420350849267187, -0.03355627025962729, 0.4997284720086997, 88854000000
-0.07053223162484841, 0.06911685566404684, 0.4999345527188685, 88859000000
0.015406401667728872, 0.1524096884639417, 0.5000609851572627, 88864000000
-0.0981227731284474, -0.00420637411514227, 0.49989293025660697, 88869000000
0.002465888442048857, 0.13675593911114187, 0.49991280259404874, 88874000000
-0.1058032456823389, 0.0055966705089108455, 0.49962134907817624, 88879000000
-0.07826831254461596, 0.027634490277001496, 0.5002839227070383, 88884000000
0.0279596038830691, 0.11743606604980139, 0.5000552359505899, 88889000000
-0.14298813880928068, -0.005637415484123983, 0.4996182485870532, 88894000000
0.006030517651135594, 0.1342249163369053, 0.49959286953313986, 88899000000
-0.11327321145815239, -0.019973480442315665, 0.4997062263302485, 88904000000
0.0021514044553499704, 0.13936145354433588, 0.5000849826997855, 88909000000
-0.13002798712688934, 0.0151598159498389, 0.4993847928480581, 88914000000
-0.013029987995223445, 0.12972809122812734, 0.500034612142177, 88919000000
-0.056055381720982365, 0.08231661562831646, 0.499807798809892, 88924000000
-0.11051347154891948, 0.002360722278367644, 0.500332323980666, 88929000000
-0.009119336022684478, 0.16174994674422627, 0.49978170444279646, 88934000000
-0.11065736216708238, -0.025181000774053018, 0.49970545312276665, 88939000000
-0.021594711357975506, 0.13123416923522485, 0.4997331696921545, 88944000000
-0.008273262662609186, 0.09039822798053185, 0.4997488764895695, 88949000000
-0.11160199250031205, -0.04922805056836892, 0.4999017407511673, 88954000000
-0.018166465209631843, 0.15022136661921842, 0.500072147178184, 88959000000
-0.047173216244929386, 0.06781951619496497, 0.4991014190206836, 88964000000
-0.12661302525385582, 0.00852901931905712, 0.5000132847039797, 88969000000
-0.00414799395735122, 0.1531373216416474, 0.5000989382929751, 88974000000
-0.08481304556082722, 0.06612893293218067, 0.49949806210424347, 88979000000
-0.13638268109042206, -0.018685803636826884, 0.5001935934636557, 88984000000
0.014961707070580779, 0.16333891161813244, 0.4997610290801618, 88989000000
-0.1192784617395839, -0.026086618940253208, 0.49971845006084514, 88994000000
-0.026713161652227837, 0.15253231976390463, 0.4998458438080191, 88999000000
-0.047725549690572015, 0.09214616996801268, 0.49975263729645253, 89004000000
-0.12623108044680043, -0.041559547988189546, 0.499616678133064, 89009000000
0.027179132291087652, 0.19118165144988536, 0.5003058451433661, 89014000000
-0.04089510167353169, 0.048829231235276306, 0.5000557657108848, 89019000000
-0.10441361184791925, -0.04243528061721425, 0.4998085954508774, 89024000000
0.009225584842812284, 0.14686349140057314, 0.49979150312445914, 89029000000
-0.04249015361277508, 0.05982634341337908, 0.49973300003108495, 89034000000
-0.12770080833120548, -0.03347835123255586, 0.49986053045585144, 89039000000
0.008248876531264618, 0.13381595332667107, 0.4995348996285806, 89044000000
-0.155114335244984, -0.0009461359851241288, 0.49997432324658575, 89049000000
0.03074168373604172, 0.18991919507314228, 0.5001775506316624, 89054000000
-0.1196104519893904, -0.03807042657630946, 0.4995130669719081, 89059000000
-0.07189762198733228, 0.07749747705490746, 0.5003825245475958, 89064000000
0.06196877129800076, 0.16408249606423747, 0.49982599519054244, 89069000000
-0.14727509633443261, -0.011677281485994485, 0.4998207000321161, 89074000000
-0.010139054973137404, 0.19132666409068824, 0.5001362038216934, 89079000000
-0.0337304710083491, 0.08576719091710817, 0.5001380122373006, 89084000000
-0.1025786069331254, -0.027242539103157933, 0.5001336671687474, 89089000000
0.014652953205168259, 0.14721015335516027, 0.5001095908211362, 89094000000
-0.048395020791623326, 0.08228503753196734, 0.5000177544706528, 89099000000
-0.1377084114779736, -0.03232224439897159, 0.49974719658463873, 89104000000
0.012427188871485598, 0.1949172314469131, 0.5000263682881418, 89109000000
-0.1061700308797433, -0.0521163979625331, 0.49983877822210937, 89114000000
-0.02437862448003833, 0.07855136377758981, 0.5001195012082105, 89119000000
-0.008465136319964341, 0.14365774259558522, 0.5001938188083075, 89124000000
-0.08626336712593864, -0.024647648835643052, 0.49967461678825414, 89129000000
-0.06341746653818216, 0.016266663678140197, 0.4998367964739176, 89134000000
0.004562861061603874, 0.16893168598802227, 0.5001123346622591, 89139000000
-0.10320648061890242, -0.038164025059259234, 0.5000383492545771, 89144000000
-0.0640034742311533, 0.08274207278445803, 0.5000395399131056, 89149000000
-0.07740889381790853, 0.07883485372424028, 0.5001075559780799, 89154000000
-0.05582778267289771, 0.04822064076696259, 0.4998022974015335, 89159000000
-0.044889134853227104, 0.08995865420442904, 0.5006023371372331, 89164000000
-0.03906825706313967, 0.07158461419777183, 0.49999124578697823, 89169000000
-0.052059693716541434, 0.06171589915723287, 0.500411152160468, 89174000000
-0.0975871234491752, 0.029394910902648175, 0.5001185999359888, 89179000000
-0.04404645378145549, 0.08699244327374539, 0.5002948547713149, 89184000000
-0.04152452235450083, 0.06727445187916277, 0.500215864609097, 89189000000
-0.03483965982895425, 0.05728460905583599, 0.49970108348886705, 89194000000
-0.05573666678767421, 0.03187413664548331, 0.49999614835250156, 89199000000
-0.041891510582048486, 0.06270927268501433, 0.5000233563341855, 89204000000
-0.05563044758581691, 0.06396569969484774, 0.5000884192205642, 89209000000
-0.02147940484186328, 0.09749757078810586, 0.4999903774003854, 89214000000
-0.07093975308890202, 0.07246782500811977, 0.500221668628896, 89219000000
-0.03608846777315171, 0.033753075464853566, 0.5002339741963541, 89224000000
-0.041487411696311115, 0.05984058733384001, 0.4998560360862617, 89229000000
-0.06109395084392455, 0.08285882467464639, 0.5000460035849613, 89234000000
-0.07229260777086907, 0.06646771511108288, 0.5001134858522873, 89239000000
-0.07230200351911303, 0.08190395231326839, 0.5001128632834811, 89244000000
-0.03400911631695497, 0.10738743254426725, 0.4998323790806609, 89249000000
-0.030439110647041544, 0.06895901787595787, 0.4997525260804612, 89254000000
-0.07515711255397967, 0.047342504852759655, 0.49974835918056093, 89259000000
-0.04653534175128912, 0.0926717014131969, 0.49999632162114677, 89264000000
-0.030607565884104532, 0.0676174272746896, 0.49983039751794145, 89269000000
-0.07366059683489529, 0.06266115663230915, 0.4997308100296741, 89274000000
-0.05880830005781465, 0.07416003781455156, 0.5000144902095195, 89279000000
-0.06516410710301646, 0.06208981817065471, 0.5000005448997551, 89284000000
-0.05582752677579372, 0.033030537549812486, 0.49987862695090274, 89289000000
-0.03866240596811089, 0.07671247530526233, 0.4998906743657078, 89294000000
-0.055057044042784865, 0.09581974274713337, 0.4999018520792305, 89299000000
-0.03844717530945995, 0.089173240168042, 0.500239540985158, 89304000000
-0.07430758365613133, 0.08426237262159539, 0.49977984605247905, 89309000000
-0.04244593811065976, 0.0821219446756276, 0.5003248549498905, 89314000000
-0.04585750283915326, 0.07335244167186936, 0.4997342514218278, 89319000000
-0.0550361324632341, 0.06171941088487955, 0.499778533905478, 89324000000
-0.042971276572185114, 0.05841360689917041, 0.500440716582614, 89329000000
-0.07133956592687292, 0.10685522871675304, 0.4998550767014824, 89334000000
-0.02041810741550358, 0.1533655172372542, 0.5001929509884439, 89339000000
-0.07917775653240992, -0.0005200059927611238, 0.4993122179765927, 89344000000
-0.06995255431229035, 0.09017747286817818, 0.5000876751858951, 89349000000
-0.06457125376250203, 0.09423045501121662, 0.49975911801577516, 89354000000
-0.0738243517564227, 0.06900467265084578, 0.49976059500062137, 89359000000
-0.042034050955470734, 0.08054295443780565, 0.500024571130487, 89364000000
-0.02756364817586431, 0.08012210161630774, 0.4999041763876075, 89369000000
-0.04788425354858786, 0.07393033260104388, 0.4998656450392871, 89374000000
-0.05614793695635553, 0.06558761326424942, 0.49960576083573305, 89379000000
-0.02206997313282063, 0.08661035318828787, 0.49961128547085876, 89384000000
-0.043787370096193004, 0.091689769230442, 0.4998730233877462, 89389000000
-0.010237031132006684, 0.16664735019245297, 0.49961565446362854, 89394000000
-0.08782244155780382, 0.04487054936830808, 0.5002601842047117, 89401000000
-0.07015679974788665, 0.08920912524272404, 0.4999614237885583, 89406000000
-0.055124958883803546, 0.08597928214413353, 0.4998316203269163, 89411000000
-0.06330680903857107, 0.06157587097621323, 0.4996450555267066, 89416000000
0.029372520955037014, 0.16020530061568006, 0.4998960276545568, 89421000000
-0.10634368485705215, 0.013559876083198374, 0.49978044228547513, 89426000000
-0.04960983151979212, 0.07367328250478632, 0.5001252640911993, 89431000000
-0.00478152833817308, 0.14880111291963527, 0.4998822558236995, 89436000000
-0.08667965253212238, -0.0007219492242675103, 0.5001542350170706, 89441000000
-0.014347614268860668, 0.17359674642695372, 0.499923799866904, 89446000000
-0.0865956386303953, -0.0024753283154185304, 0.5001460793826232, 89451000000
-0.055353599554678314, 0.06185783937754302, 0.5000443946945496, 89456000000
-0.010425440113972655, 0.13823248858792656, 0.49986016326947935, 89461000000
-0.09917156165867233, -0.0006172278822260228, 0.4999082272845168, 89466000000
-0.03396280697227322, 0.16837526621112955, 0.4998965607634527, 89471000000
-0.12076174200973327, -0.0044173855651154035, 0.4999212800650636, 89476000000
-0.077574949624437, 0.05926337896520796, 0.49990997331076903, 89481000000
0.009457196143364374, 0.14869020395890514, 0.5000912917027031, 89486000000
-0.10549980073179736, -0.027720076107877696, 0.49983577002533625, 89491000000
-0.04673161840961323, 0.142814133465517, 0.5002142938052246, 89496000000
-0.031161855105408944, 0.09331836684191286, 0.49969856485250824, 89501000000
-0.1411512804694344, 0.011264573920166054, 0.4996958259146789, 89506000000
-0.009695146104022771, 0.14703138959953493, 0.4994304946998169, 89512000000
-0.11569684626169172, -0.04915554732148984, 0.4997644580923316, 89517000000
-0.07209247337043379, 0.09557660223690433, 0.4998676205101475, 89522000000
0.006599959799370947, 0.1840748854163535, 0.49946514431367023, 89527000000
-0.09400772521024806, -0.005606299236131748, 0.49979332074551513, 89532000000
-0.030421079651366378, 0.19126967403040993, 0.49986601917920714, 89537000000
-0.09590970951190461, -0.01262908834860028, 0.4994583757454725, 89542000000
-0.04971527652061303, 0.06290770867342929, 0.5000987487157035, 89547000000
0.014402735088388064, 0.19038705914199852, 0.5002379322608866, 89552000000
-0.10614949585356903, -0.03643339538299163, 0.4998489305428481, 89557000000
-0.021295433792596585, 0.194687700280789, 0.49967331732769776, 89562000000
-0.08978373161148635, -0.005512469497087525, 0.5001450686285298, 89567000000
0.015925862682403414, 0.17843730080160755, 0.49973886462859624, 89572000000
-0.05844672073038687, 0.09082582999652027, 0.5000327393506477, 89577000000
-0.10605918905275188, -0.013466150784254137, 0.4997934469938568, 89582000000
0.00864505630533038, 0.1620471262778307, 0.4999628210521501, 89587000000
-0.1215635505492223, -0.009797312810768559, 0.500159659027204, 89592000000
0.008723007136207932, 0.1986776929972164, 0.49969962502426224, 89597000000
-0.05774623249753128, 0.0991536906528167, 0.49938121037302763, 89602000000
-0.11337149017297402, 0.02071032315139637, 0.5001249324176408, 89607000000
0.01830247325625743, 0.1687156989840126, 0.49997541250664684, 89612000000
-0.11010943306774078, -0.041399387494687634, 0.49989667121213094, 89617000000
-0.014281678225027464, 0.1764437571707249, 0.5001919035479078, 89622000000
-0.03892759842419709, 0.048894499140613626, 0.4997329647118662, 89627000000
-0.13620070028170836, -0.023206383967865358, 0.4999738422740815, 89632000000
0.010405554332619145, 0.15851986559929437, 0.4999654469757984, 89637000000
-0.09608331846426847, -0.058142987590826936, 0.4995809638237753, 89642000000
-0.06776564872748812, 0.10688593418065065, 0.4998309475863724, 89647000000
-0.016864509327860554, 0.22774743144656678, 0.49970776571952336, 89652000000
-0.1325811261735629, -0.03347415252826863, 0.49995509644537717, 89657000000
-0.057190542683058836, 0.09677792730662137, 0.5003651217399858, 89662000000
0.01804498606399791, 0.1786732762842286, 0.4998612382843549, 89667000000
-0.1290206764414572, -0.0063599651834912695, 0.5000571010847557, 89672000000
-0.02629077983098444, 0.18957280718780273, 0.5001693055757676, 89677000000
-0.0784794948379508, -0.031642123148074845, 0.49999220249263976, 89682000000
-0.07823390606822948, 0.05203333056486993, 0.5000734579250906, 89687000000
0.022915774052690876, 0.20342781503598917, 0.5002545862285553, 89692000000
-0.09379719971518677, -0.02944975940836918, 0.5000501983340524, 89697000000
-0.05822478513397024, 0.10870660355247498, 0.5004765428181591, 89702000000
-0.021894916290506463, 0.1419045022267266, 0.5000132469898598, 89707000000
-0.10352557745662123, -0.037707144452498446, 0.4999784346084511, 89712000000
-0.08574255211211951, 0.08334845264878223, 0.5002633991167611, 89717000000
-0.0006096951902128086, 0.20673312270815225, 0.5002348525102737, 89722000000
-0.10668027159425676, -0.0629771762620448, 0.49987956531332167, 89727000000
-0.08394165362107919, 0.10214265971163847, 0.4999500253745459, 89732000000
0.0028536355012593172, 0.17416551864863614, 0.4998049836851726, 89737000000
-0.15173002504720656, -0.07441562207319832, 0.5000734493292361, 89742000000
-0.030316599382855903, 0.08754563389147517, 0.4999777922141551, 89747000000
-0.04291472997730092, 0.06820997230127443, 0.5005903770893962, 89752000000
-0.06431049252990073, 0.08627345451766327, 0.5000625473617893, 89757000000
-0.04812092153483938, 0.10339320329955957, 0.5001353571888127, 89762000000
-0.05119980162143591, 0.08477501505932153, 0.5000912273196116, 89767000000
-0.06666860393880804, 0.04250462849620597, 0.49988015471509045, 89772000000
-0.046610380665078326, 0.061106198607214, 0.500173887571386, 89777000000
-0.05733354059137452, 0.07203862208606189, 0.5000244246925141, 89782000000
-0.007436696186688045, 0.21185904749929996, 0.5000517519956988, 89787000000
-0.10931855425616893, -0.001343186352987677, 0.5001790416579139, 89792000000
-0.06682381915801804, 0.08521069807458799, 0.5000011487358841, 89797000000
-0.0466942064247538, 0.06389203564470883, 0.5003443721332873, 89802000000
0.009333816072088566, 0.14538259294955186, 0.4998735721446051, 89807000000
-0.07690972931653707, -0.01552334972093809, 0.4998763207321239, 89812000000
-0.05364196449671491, 0.12069978878968896, 0.5000449780021458, 89817000000
-0.09146561083735977, 0.07940746319445556, 0.5000647981616698, 89822000000
-0.05163413078290202, 0.09796876798541079, 0.4998000139024947, 89827000000
-0.01797922474689121, 0.10215805481514872, 0.4996797586315047, 89832000000
-0.05692611709164735, 0.10146462575416074, 0.4999713512439786, 89837000000
-0.06207912677699615, 0.08465427390049778, 0.49954417953494706, 89842000000
-0.07189106241814751, 0.08546592100843184, 0.4996718165153525, 89847000000
-0.07752994761724584, 0.10240245931467382, 0.4997710714362712, 89852000000
-0.07902204792029556, 0.070653350955463, 0.49988206830069465, 89857000000
-0.04550391858501698, 0.10886922347689797, 0.49997124768508355, 89862000000
-0.022119317498883177, 0.06236318485233214, 0.4995696028206352, 89867000000
-0.05900577652483348, 0.09875233296606557, 0.49990362953247824, 89872000000
-0.05146725197510148, 0.09342660349252144, 0.4999587030450044, 89877000000
-0.025741575037202844, 0.17005364667944753, 0.5001380369212917, 89882000000
-0.11458451119844772, -0.0017200583682763873, 0.49976921366905375, 89887000000
-0.038388350675590016, 0.07166964847675515, 0.49988797067537943, 89892000000
-0.06164043358786306, 0.05261624966707912, 0.49971706670212973, 89897000000
-0.06357621807595223, 0.10255344222942464, 0.5003012642173145, 89902000000
-0.0534833634404799, 0.09538855610738191, 0.4999364996026101, 89907000000
-0.02889533749035047, 0.07810804395519058, 0.4995665676830096, 89912000000
-0.047125999528663094, 0.13661408796090757, 0.4996065932532685, 89917000000
-0.09522205672051379, -0.0005113574325101792, 0.49950211764204094, 89922000000
-0.04802776341673445, 0.07436334597754132, 0.4997925977958768, 89927000000
-0.024730870133964532, 0.09678702914113427, 0.4999425498718313, 89932000000
-0.054925579437685036, 0.09671838408289923, 0.49992398029847385, 89937000000
-0.078303259933538, 0.08198487453423552, 0.4998913094838017, 89943000000
-0.06887900214833562, 0.09374802286259598, 0.499565573498254, 89948000000
-0.04129859136364516, 0.11034756643031712, 0.49942580519397783, 89953000000
-0.08568765711387825, 0.0632782277418023, 0.499856172927457, 89958000000
-0.07141846839350192, 0.04564413843981651, 0.5001357486888738, 89963000000
-0.004756069828709838, 0.15472669915972112, 0.4998176012056923, 89968000000
-0.12643944910973895, -0.011870757539695997, 0.5000848834167718, 89973000000
-0.047069307298272176, 0.09430395382052853, 0.49986199995813546, 89978000000
-0.014122548858164228, 0.1576939528485306, 0.49946186955313177, 89983000000
-0.1124319470300604, -0.04980232355896706, 0.4997291853276744, 89988000000
-0.010234609629135957, 0.10166852107875372, 0.4997640278929647, 89993000000
-0.01343379033512673, 0.16072252925577066, 0.4995650458805806, 89998000000
-0.1056715995357648, 0.029163442827717375, 0.49954090697794457, 90003000000
-0.05494079759995439, 0.10481728944003854, 0.49972230637457427, 90008000000
0.006868803217237186, 0.19541591452420073, 0.49955690297779143, 90013000000
-0.09849032671603634, -0.039261980805398645, 0.49979882430535055, 90018000000
0.02611237562546679, 0.18283225070707823, 0.49988171376273305, 90023000000
-0.12110015394005237, -0.017932024711818075, 0.4998117176780437, 90028000000
-0.06496870562190381, 0.0907058001321118, 0.5000851924748027, 90033000000
-0.008701153461078073, 0.17823874105131018, 0.4999355810577525, 90038000000
-0.15294045497101852, -0.013151116624841634, 0.49981184821854974, 90043000000
-0.059232830363106635, 0.0788871954728753, 0.4997884367300377, 90048000000
-0.011329754542559151, 0.20217019378787654, 0.49980718584052686, 90053000000
-0.1114367618818771, -0.009660585300280237, 0.49984305504127824, 90058000000
-0.015835500583363506, 0.15975331371790885, 0.4998512240414493, 90063000000
-0.07588899566098783, 0.013328034501187897, 0.4996259526061612, 90068000000
-0.0859940870126104, 0.09791818890061366, 0.4997002960414335, 90073000000
0.03507117395128939, 0.18218040575913488, 0.4992793220488261, 90078000000
-0.09083352815460147, -0.039492728380752726, 0.49962920612918743, 90083000000
0.0158486144056288, 0.14866085967522638, 0.5000810160654834, 90088000000
-0.06719427784475912, 0.06958507545110558, 0.49990188033379546, 90093000000
-0.12327744428777038, -0.010346876816077715, 0.5001216078287583, 90098000000
-0.02576773613742131, 0.15312101187662572, 0.5001318916565126, 90103000000
-0.10653548046121639, 0.021319293369353075, 0.4998014635216246, 90108000000
-0.0707836046942423, 0.1053997484140756, 0.5000066299614757, 90113000000
-0.009950088037709874, 0.1585454135326976, 0.49981512704556913, 90118000000
-0.1619845657901623, -0.026155303986872755, 0.499981117812863, 90123000000
-0.004869870574877637, 0.15630882204940508, 0.49995100656308755, 90128000000
-0.15187636095967888, -0.039223665517206095, 0.4999820452287102, 90133000000
-0.06429349350423275, 0.2093892773031637, 0.5000985321966728, 90138000000
-0.05223088651071421, 0.08456074162664175, 0.4998931782867993, 90143000000
-0.10769792233268052, -0.018488384266182788, 0.5001357220075062, 90148000000
0.0024757689823344136, 0.16801519942758136, 0.4999241366246636, 90153000000
-0.10029424805144013, -0.003893571265011341, 0.49990056087995804, 90158000000
-0.04507218732617609, 0.19427967598839804, 0.5002595531359124, 90163000000
-0.05235939251322914, 0.06776512475634876, 0.49979432331162577, 90168000000
-0.09531789322500926, 0.03227297019605102, 0.500176485700006, 90174000000
0.006745694078367212, 0.17628458175302023, 0.5000173348804049, 90179000000
-0.10920091531172668, -0.0009772768831294923, 0.4998232728736322, 90184000000
-0.0858811974526287, 0.08229324619951091, 0.500410306003715, 90189000000
-0.004071549977775532, 0.16522946177740727, 0.4998428496645427, 90194000000
-0.11861053254772583, -0.03506456845330887, 0.5000104955256454, 90199000000
-0.019791140318099386, 0.07838221970018425, 0.5000675967551939, 90204000000
0.019755348488910827, 0.1702482775312098, 0.49994125977561615, 90209000000
-0.10513318624505305, 0.005665590317286626, 0.5000806052660763, 90214000000
-0.028276377768947175, 0.22195120582928693, 0.4997790371031959, 90219000000
-0.10954704062248077, -0.030755727080002543, 0.49998988688941726, 90224000000
-0.05120859375214011, 0.11999873271564299, 0.5001829143602672, 90229000000
-0.007432589370940228, 0.1937375414705633, 0.5000506160207141, 90234000000
-0.14297831809633466, -0.035158940145837696, 0.4999919450622786, 90239000000
-0.003844256250705296, 0.1874168084782755, 0.4998260537963786, 90244000000
-0.12473225870136007, -0.02292056669936694, 0.4998650500894856, 90249000000
-0.013131558922200137, 0.10158025066665953, 0.5000406019495397, 90254000000
-0.02194753870999734, 0.2073849252001991, 0.49990787446572016, 90259000000
-0.1382462511280125, -0.02985147392237769, 0.5003914887110369, 90264000000
-0.04875596991798391, 0.08483684766298556, 0.4999311589944529, 90269000000
0.00362081692094041, 0.1734642157270283, 0.4997270601045423, 90274000000
-0.11498998105363943, -0.008040230035319024, 0.49977472708595533, 90279000000
-0.051392923684716776, 0.12223677271939551, 0.5002154604027591, 90284000000
-0.007693937318274242, 0.16796402357423745, 0.4995736980564753, 90289000000
-0.10825480984768321, -0.012110321167395173, 0.5001048647955423, 90294000000
-0.06539651502667855, 0.10705301860832041, 0.5003095113859422, 90299000000
-0.043283539989822706, 0.07561416484532335, 0.49976251653726256, 90304000000
-0.08641860612631333, 0.0669801416259845, 0.49986005450564974, 90309000000
0.005214062784526621, 0.1710768982520012, 0.5003111892584684, 90314000000
-0.10812539935700446, 0.012701872023820674, 0.4998516538173633, 90319000000
-0.06439214431928081, 0.09783810537296381, 0.5001727234577328, 90324000000
-0.09386070138502531, 0.08185778642149104, 0.4999842820781867, 90329000000
-0.05088231187628646, 0.09328037353866409, 0.4999193890786855, 90334000000
-0.08287616084232177, 0.08836216220453674, 0.49963589816119497, 90339000000
-0.04939077219315699, 0.07558506132863459, 0.49982441157947194, 90344000000
0.014027482533884758, 0.15243908993204952, 0.5000571953644398, 90349000000
-0.11521646564635593, 0.02962151430187953, 0.4996499989447337, 90354000000
-0.054616818164373235, 0.09388197479406614, 0.5002536651733297, 90359000000
-0.04448045800199031, 0.16798541362339894, 0.4999359188433526, 90364000000
-0.1250368922455474, -0.0359288037938888, 0.4997780868491275, 90369000000
-0.05050963980215338, 0.10820104968324311, 0.5003335307490457, 90374000000
-0.03443108592990129, 0.1807411636801493, 0.4999959859862079, 90379000000
-0.12633053309661996, -0.04205673897038191, 0.49973962772654856, 90384000000
-0.04365152659729173, 0.0986366289660699, 0.499961883114199, 90389000000
0.0009056685131360025, 0.16545657962014987, 0.49997320850810756, 90394000000
-0.11549378581047931, 0.00103137651491742, 0.49989784181594515, 90399000000
-0.06294946524780234, 0.09942709762970048, 0.49967746270940194, 90404000000
-0.014837676633973753, 0.1552463253784055, 0.5001289085504942, 90410000000
-0.12642322264884143, -0.061580595241218096, 0.4999110203494356, 90415000000
-0.060110413519951666, 0.13181837258272924, 0.49962544904764555, 90420000000
-0.006857443972587165, 0.15860816973661798, 0.49990152303816554, 90425000000
-0.10522443290150311, 0.0191453577027888, 0.49992552824487824, 90430000000
-0.03939282774648287, 0.10708220988550983, 0.5001092145756859, 90435000000
-0.021164025742442288, 0.15739734808124348, 0.4998290486814934, 90440000000
-0.07890180115932185, -0.01720224787267552, 0.5001126925019118, 90445000000
-0.06639022548819755, 0.09771012241031145, 0.49988321742104175, 90450000000
-0.09122607547824498, 0.07153911941745685, 0.4996844111037842, 90455000000
-0.035871610139860004, 0.07036178551335412, 0.4997743297683161, 90460000000
-0.06252629395291986, 0.06307229816871177, 0.49944369580308734, 90465000000
-0.04410599620065665, 0.09151527836226478, 0.49999891786368306, 90470000000
-0.04167869502941908, 0.09503175740666224, 0.4999229453965669, 90475000000
-0.0756088947409129, 0.0727711711843561, 0.4994977594406433, 90480000000
-0.06617468982393679, 0.08473637699659009, 0.500121433903523, 90485000000
-0.04460524319588839, 0.12473773831493075, 0.4997106313635334, 90490000000
-0.06057440585196377, 0.08699467188248577, 0.49988767543136575, 90495000000
-0.023597794691281454, 0.1632058274067224, 0.49982272005038336, 90500000000
-0.09372699647959017, 0.029676226460261, 0.4996305367684872, 90505000000
-0.04864091532765869, 0.09255715697170314, 0.5000245204623082, 90510000000
-0.05631171530311768, 0.07418735499614251, 0.5001464276534942, 90515000000
0.01645651844357854, 0.24088264787923486, 0.49964916647982743, 90520000000
-0.06790702771257522, -0.006386264965269978, 0.5001375365684552, 90525000000
-0.06420651270395664, 0.10928163114426674, 0.4992541270222875, 90530000000
0.003397809927506867, 0.19329096844257895, 0.4997379516155851, 90535000000
-0.07943340161880612, -0.004538250108470256, 0.4997053469536296, 90540000000
-0.0482318695909464, 0.0790582558373025, 0.5000646519119766, 90545000000
-0.007397434903703405, 0.17111594567242544, 0.5002249850726475, 90550000000
-0.1307441656534576, 0.005241459697285554, 0.49969913509067776, 90555000000
-0.06752204278132093, 0.10810901108616745, 0.5003767249181045, 90560000000
-0.02187606032677486, 0.16678251181345619, 0.4998104476484589, 90565000000
-0.08781597221297527, 0.026709209670885303, 0.49992174034827164, 90570000000
-0.030005604495751566, 0.16462587428986747, 0.5002033740785071, 90575000000
-0.0982019164737199, 0.019096904173428644, 0.49964555529500526, 90580000000
-0.052811219779436556, 0.08676616558887654, 0.499916404757297, 90585000000
-0.007681068148061552, 0.18493847361608928, 0.49967933818162225, 90590000000
-0.1204069662636743, 0.004350408966251332, 0.5002355282083194, 90595000000
-0.02859547142869803, 0.17466097576210526, 0.4998381445914978, 90600000000
-0.08918951237903071, 0.01577365220657193, 0.5000327475967532, 90605000000
-0.07337684539859086, 0.11479583474354015, 0.4997982141497429, 90610000000
-0.0033934787719046306, 0.14396343055868902, 0.5001790930028563, 90615000000
-0.12346523711570662, -0.008836909625811799, 0.49992299177894395, 90620000000
-0.08200494809124631, 0.09818605719861016, 0.5001679098191953, 90625000000
-0.03272461366071649, 0.1088435036318609, 0.4994397112172919, 90630000000
-0.06814234262142445, 0.07657148606367131, 0.5003117466169581, 90635000000
0.009266683506083402, 0.18209205630059783, 0.5002262397248672, 90640000000
-0.09493537842320773, 0.034455493926874074, 0.4998126619910439, 90645000000
-0.06743423079579534, 0.07273921008939967, 0.4999761090941055, 90650000000
0.053515669755347384, 0.1892813282467598, 0.49969483191204156, 90655000000
-0.11890165893323466, -0.02934158741721622, 0.5001886680440782, 90660000000
-0.06418227318059185, 0.08650416357976286, 0.5000559143263946, 90665000000
-0.0017714214516303898, 0.1924999238742722, 0.5000748364745538, 90670000000
-0.125095905647143, -0.023007174306812164, 0.5003522196951565, 90675000000
-0.008409246791165458, 0.17471744572889872, 0.4998962418514685, 90680000000
-0.11390742191198558, 0.011681296571816765, 0.4994372548994446, 90685000000
-0.0839924737680581, 0.08709881319033917, 0.49994487880061517, 90690000000
-0.01971490259534954, 0.1948184690981032, 0.49952200700193955, 90695000000
-0.13625610843291747, -0.029058907852090338, 0.5000417950883543, 90700000000
-0.06884441593211885, 0.12062600038364128, 0.5001057602327703, 90705000000
0.028373738538442616, 0.21427715921033838, 0.4998805688188089, 90710000000
-0.08655201024248833, 0.03482546084250004, 0.5000111502430209, 90715000000
-0.05225462515051392, 0.1017210423313029, 0.5002276442797294, 90720000000
-0.0016163935854348987, 0.1956881744936883, 0.49988770102175734, 90725000000
-0.09373617561852833, -0.043923809542282366, 0.4997547478605445, 90730000000
-0.08585555615274365, 0.08745815456842625, 0.49984858642382224, 90735000000
-0.00945944800123231, 0.22489052926565467, 0.4997340938254052, 90740000000
-0.10286640167831214, -0.015752388875448997, 0.49983871121070894, 90745000000
-0.04963661081483214, 0.09437812134215362, 0.5000162378326312, 90750000000
0.005319783817687689, 0.16639765209608065, 0.5004514778518357, 90755000000
-0.1507728762825043, -0.0029708100627521307, 0.49963716932496943, 90760000000
-0.01487658353550083, 0.1892475487316294, 0.4999567172400421, 90765000000
-0.08752385713645827, 0.0413499164477237, 0.49984522196449693, 90770000000
-0.06554993782666535, 0.10489133473454791, 0.5004345206391912, 90775000000
0.0036777894211989497, 0.19679921083439902, 0.5002963442919358, 90780000000
-0.14014033021937386, -0.0012148679087144384, 0.500002812342752, 90785000000
-0.02636998268978035, 0.14763959112748337, 0.49969513972732144, 90790000000
-0.03970803771269201, 0.10172457784627298, 0.4998305496435636, 90795000000
-0.12081268548788736, -0.014139520159287551, 0.500220456718637, 90800000000
0.011311501642143906, 0.18271673420426315, 0.49989554238854045, 90805000000
-0.10534416479383336, 0.013826527018319951, 0.4995490104170245, 90810000000
-0.06655436622931926, 0.09714044285452955, 0.499867473830512, 90815000000
-0.04789799742746756, 0.2163727387991809, 0.49999607002130686, 90820000000
-0.11244975704194081, 0.0012395613416389117, 0.49991422404666336, 90825000000
-0.06341121080301773, 0.08178712018033685, 0.49957693985731494, 90830000000
0.014825048486296665, 0.21079907832282885, 0.5000606443079282, 90835000000
-0.104737164631434, 0.016219743835178144, 0.4999108523929587, 90840000000
-0.05612442565706354, 0.09544897605925888, 0.5004362125563095, 90845000000
0.014246905038225162, 0.2059861109433239, 0.5000853787198576, 90850000000
-0.10492008566078408, -0.02594084725822775, 0.4998270215931655, 90855000000
-0.04157804135376069, 0.08296581359558525, 0.500245842980122, 90860000000
-0.02077726825569285, 0.18579956571639217, 0.5001596928013213, 90865000000
-0.13673721319261398, -0.012254378974827965, 0.49967513472175346, 90870000000
-0.04022044468003419, 0.0708242413315018, 0.4998737562076203, 90875000000
-0.017694067665460632, 0.16377499476435003, 0.5000136841851893, 90880000000
-0.10140626986588734, 0.012893972358219378, 0.5001037244073994, 90885000000
-0.040126583565939074, 0.08340621446686909, 0.4998176219885521, 90890000000
0.0063403983230756085, 0.17745219862317918, 0.5002045943644484, 90895000000
-0.08989386676317031, 0.013047259190020205, 0.4999333384924647, 90900000000
-0.04079185786958725, 0.1035244970616905, 0.5001480620535446, 90905000000
0.004820192017558993, 0.15980685587879134, 0.5003111034036344, 90910000000
-0.091588732758173, 0.024775361076062433, 0.4996420929681475, 90915000000
-0.07296589570303046, 0.10925676582543227, 0.4999821979918435, 90920000000
0.006715630154260967, 0.21293937402914093, 0.49986335075634253, 90925000000
-0.08349629503436388, 0.015647458290581038, 0.49990385460669623, 90930000000
-0.036442418690788514, 0.09503124921473613, 0.4998141682175668, 90935000000
-0.06660094366302896, 0.08137248480594558, 0.4999745498821559, 90940000000
-0.05323197911541349, 0.09353134850216545, 0.4997607874553836, 90945000000
-0.07056054699476891, 0.08605951964377084, 0.5003206570478788, 90950000000
-0.03293335097132563, 0.07715030516017117, 0.5001960883060417, 90955000000
-0.053753328911489706, 0.1029723708290481, 0.4997405665434933, 90960000000
-0.0642957366636686, 0.059532443574713594, 0.4999227235495078, 90965000000
-0.053495344296811645, 0.1262630055676045, 0.4998671495471352, 90970000000
-0.0028446384879843873, 0.16264897134194167, 0.49964778577943064, 90975000000
-0.132170111198369, -0.03342067663531357, 0.49999358668732113, 90980000000
-0.02193004877246297, 0.084722553463589, 0.5002814700029979, 90985000000
-0.028450141317307758, 0.09846575606322841, 0.5001766455780478, 90990000000
-0.038337627820473424, 0.10630721199748987, 0.4997784313970317, 90995000000
-0.06415555148377941, 0.09574287802325475, 0.4998706823690331, 91000000000
-0.03209657348096931, 0.0944988542615928, 0.49985461693399774, 91005000000
-0.0022435138410760217, 0.1459597108554138, 0.4997621121785366, 91010000000
-0.11016615649749313, -0.021829439778305017, 0.49966279746321424, 91015000000
-0.016015908874896255, 0.08068131177188838, 0.4999211112707921, 91020000000
-0.015262318682879548, 0.15170086844349542, 0.5002555077573569, 91025000000
-0.1442478854659422, -0.05243860932252688, 0.49988144194256395, 91030000000
-0.057266793698043925, 0.11137677142150608, 0.5000634184084708, 91035000000
-0.040407094574053226, 0.09842455247666224, 0.4999197869051341, 91040000000
-0.044779644449475416, 0.1230997528665976, 0.4996834918654746, 91045000000
-0.11110854185702121, 0.06784805409400171, 0.49986101035694025, 91050000000
-0.04526323738641328, 0.11180333563456768, 0.5001499027409816, 91055000000
0.012412960662784836, 0.15773487714325712, 0.4999765839140453, 91060000000
-0.11417767616930366, -0.005946807765746434, 0.4998328709991276, 91065000000
-0.05988968172133574, 0.10153814393596744, 0.4999084750870933, 91070000000
0.009488369644091535, 0.1426494479085461, 0.4997908270451669, 91075000000
-0.0909399966452181, 0.018739350116238552, 0.5000657547910072, 91080000000
-0.06309750486609475, 0.11670368950069296, 0.49970710386639294, 91085000000
-0.015625593145455217, 0.19676976006360397, 0.5002608059962032, 91090000000
-0.13056409096695828, 0.03472652195917185, 0.49984883812243935, 91095000000
-0.05021039641184108, 0.09737771534853695, 0.49978304419805725, 91100000000
0.014697601073340776, 0.14262489566490663, 0.5001645375861978, 91105000000
-0.10496107756966672, -0.01582722135115238, 0.5000088187156803, 91110000000
-0.0948397937372831, 0.09535729066138145, 0.4998363770598931, 91115000000
0.0007012139893013258, 0.18036256542472143, 0.49981972759762827, 91120000000
-0.13191759728781025, -0.0007139710865448796, 0.4997125942632764, 91125000000
-0.061149614443293455, 0.09192695597866149, 0.49962773841426034, 91130000000
0.001590276318074262, 0.1645039609672732, 0.5001196673531274, 91135000000
-0.10477331127646541, -0.005836262924126617, 0.4999652505392484, 91140000000
-0.04217808455581698, 0.08608164666462716, 0.4999425737508389, 91145000000
-0.027490312419090873, 0.16498970212071232, 0.49942120693871694, 91150000000
-0.08231933208661325, 0.002307128611462602, 0.4993849778847976, 91155000000
-0.06661032960893377, 0.13893818851040238, 0.5002505144993117, 91160000000
-0.03299709126981441, 0.08284611037940957, 0.4998667901496744, 91165000000
-0.05535310255548752, 0.06389769140538176, 0.4998259049633814, 91170000000
0.0071752642453021855, 0.1628688967415116, 0.4996329248203617, 91175000000
-0.10047642343567847, -0.00686912729904357, 0.49983921292877076, 91180000000
-0.04246277126800973, 0.11872166813764132, 0.5000054016331689, 91185000000
-0.0721302547144118, 0.10742675262194464, 0.499622186012936, 91190000000
-0.0534531754880825, 0.11035422763769445, 0.4999843500423495, 91195000000
0.002409468511199616, 0.1925448413445856, 0.4996738573001134, 91200000000
-0.13871740923332057, -0.013159983007622167, 0.499800320921185, 91205000000
-0.04669166420528109, 0.1689602953839937, 0.4998999865450661, 91210000000
-0.06386142240617235, -0.00011480119564115376, 0.4999590527439532, 91215000000
-0.07272101097060524, 0.09067942167401162, 0.4998354017009394, 91220000000
0.056910789880687616, 0.17370188094374642, 0.49981630079388467, 91225000000
-0.13022529428800528, -0.02778810527433622, 0.4993649003218125, 91230000000
-0.07403974703767673, 0.07569794457705173, 0.4999803903803815, 91235000000
-0.04082446635843183, 0.1809130186555394, 0.5001562550650444, 91240000000
-0.08723365176641634, -0.015475518330042862, 0.5000814857893303, 91245000000
-0.03253611980955607, 0.10339901605756666, 0.4999399669365434, 91250000000
0.0035249139901575577, 0.18748058098505146, 0.4998044277399972, 91255000000
-0.08293786626713018, -0.03194679596338345, 0.499995204245373, 91260000000
0.018274185946792934, 0.20340130914119606, 0.5000494642061156, 91265000000
-0.11842328840203248, 0.018460106898203942, 0.4994087257476096, 91270000000
-0.0724946384049775, 0.08928101335850483, 0.49980109341911727, 91275000000
0.01091096151940905, 0.16198882506168155, 0.49976318569947276, 91280000000
-0.11960240208756676, -0.03383063803909688, 0.5000394159078311, 91285000000
-0.019710797331311335, 0.11188113174723086, 0.4999642050984425, 91290000000
0.010776556988705709, 0.15432630905735778, 0.4999304452092152, 91295000000
-0.07028469213175662, -0.006223667478364513, 0.49999295295703067, 91300000000
-0.07262249631451145, 0.08826758163646763, 0.5000892245054673, 91305000000
0.00044582832454005596, 0.1874497865788818, 0.4995535392450189, 91310000000
-0.11354504368387018, 0.012833593657444114, 0.5001342546320899, 91315000000
0.006590911337650137, 0.18479925429241545, 0.4997680826503325, 91320000000
-0.11448392838485506, -0.014024868047157465, 0.5001335990758375, 91325000000
-0.06545502224171298, 0.0746675985751038, 0.5002309935720304, 91330000000
-0.009190140853597845, 0.21995866001366654, 0.4999421610839281, 91335000000
-0.07211551909107373, 0.02460596994849881, 0.4996953299943472, 91341000000
-9.0105711003945e-05, 0.18471833933395782, 0.5002815394688541, 91346000000
-0.13192354628092606, 0.027939557804164614, 0.5000879055467256, 91351000000
-0.05925105857114135, 0.06203654049414681, 0.5000470893175488, 91356000000
-0.009347320596802204, 0.199443044939977, 0.49996628223500567, 91361000000
-0.10560461285115202, -0.020569895663909453, 0.49968954370604496, 91366000000
-0.050793878312437146, 0.09758239402942995, 0.49967907959371854, 91371000000
0.02421431961781535, 0.16534237550534192, 0.4996297231825096, 91376000000
-0.1445855252158443, -0.01307610935882203, 0.500064821465497, 91381000000
-0.035740359468485465, 0.10948575392095834, 0.49966775708553657, 91386000000
-0.02502966385401785, 0.17724921317062553, 0.49994938733556643, 91391000000
-0.0976435628122808, 0.01029056650208825, 0.5000986758293394, 91396000000
-0.0720249270116502, 0.10590120581740435, 0.5001809356303076, 91401000000
-0.019075958258113784, 0.1492114776458025, 0.49990137374534355, 91406000000
-0.13529041168970382, 0.0024770862388585994, 0.4999203590062906, 91411000000
-0.04923500722429039, 0.09353598231046964, 0.4997603945214908, 91416000000
0.008723601721753238, 0.18986466786807057, 0.5000044902724586, 91421000000
-0.08875747320637145, 0.024261023377072758, 0.5001270375589085, 91426000000
-0.05273455470775419, 0.10465888284825672, 0.500047705293746, 91431000000
-0.024170779439759323, 0.17679729399658312, 0.49999649294637055, 91436000000
-0.10193452234666596, 0.0001210882495451546, 0.49979041907056293, 91441000000
0.008587340157841747, 0.18105797033503052, 0.5004815153599903, 91446000000
-0.09128557792899601, -0.007987251925731145, 0.499751419000684, 91451000000
-0.09978241059883801, 0.0945589623446059, 0.5001056013407219, 91456000000
0.016370293615761696, 0.19080718804658583, 0.49994094774329956, 91461000000
-0.12390250947027663, -0.00592947270465426, 0.5001129594156911, 91466000000
-0.0770331184613382, 0.06885306402083684, 0.4999054364335166, 91471000000
-0.0065333869960037885, 0.16663572884957856, 0.4993083698827433, 91476000000
-0.10911821301358648, -0.021553447885519793, 0.5003273307529081, 91481000000
-0.042346729532188376, 0.12467308915595252, 0.5000524784934359, 91486000000
-0.05931847036430482, 0.086928564131632, 0.4999152168848369, 91491000000
-0.05930587597599387, 0.09682369580854243, 0.5000309713538045, 91496000000
-0.031180958129814716, 0.17978225302958573, 0.4998661976613405, 91501000000
-0.11221580462810939, 0.0259279835700242, 0.4997752749798217, 91506000000
-0.0696163371068903, 0.08250766563194685, 0.49993224061599434, 91511000000
-0.020334411419565244, 0.18833267319638083, 0.49997721491622305, 91516000000
-0.13380448131147651, -0.02601008485527414, 0.4997614748838563, 91521000000
-0.075847350956467, 0.11255770316453836, 0.49969001316603534, 91526000000
0.018038700884790208, 0.1648346461852459, 0.5000541929232142, 91531000000
-0.09910381411787615, -0.00011298552098660186, 0.4999148254164001, 91536000000
-0.05006872877174474, 0.07668855966265573, 0.499785691091749, 91541000000
-0.0016026037850429362, 0.14730379382178413, 0.5000861667123315, 91546000000
-0.08832406844140527, -0.0044876246930827535, 0.4999293700228931, 91551000000
-0.0689178098093946, 0.07005631843770144, 0.5000189183528919, 91556000000
-0.004763611019127173, 0.1819947148730106, 0.5000271862553729, 91561000000
-0.11509318338556186, -0.015532515395346256, 0.499856205878489, 91566000000
-0.03443503588266115, 0.06983544130338784, 0.5000053217255717, 91571000000
-0.0709542649336997, 0.11381354434285332, 0.4999038076714709, 91576000000
-0.04594947305006263, 0.07629294137224717, 0.49953433164643035, 91581000000
-0.039487130253351745, 0.08143265129904921, 0.4999981913896339, 91586000000
-0.023143417579290275, 0.18712710121977566, 0.5001647764032843, 91591000000
-0.09195943801678079, -0.02216681390928312, 0.4995875839341145, 91596000000
-0.0596694340736887, 0.06745899723403484, 0.5002191158731166, 91601000000
-0.028155741430591782, 0.1666894863401521, 0.49985300284000106, 91606000000
-0.08987579268978288, 0.02766793795212116, 0.4998915007979365, 91611000000
-0.04989624613755728, 0.07537417572655714, 0.4996730896255298, 91616000000
-0.012244681061092406, 0.17943320013153533, 0.4997449876183096, 91621000000
-0.08901248599157272, -0.02945005160338013, 0.49977828463226476, 91626000000
-0.06899483015414067, 0.09160794594873092, 0.5000688955774242, 91631000000
-0.02127138569889656, 0.13932057783682839, 0.500338929003695, 91636000000
-0.08770422638991378, -0.009302716875760291, 0.4999440872752013, 91641000000
-0.07319664252992787, 0.106021821845489, 0.4998046462033706, 91646000000
0.027969221017275236, 0.1866720860509409, 0.5000723806454459, 91651000000
-0.07899635135592636, -0.017769536865270667, 0.5002649591968286, 91656000000
-0.09315391464638495, 0.07881592260557464, 0.4997535280403375, 91661000000
-0.021363234775916232, 0.156109470276272, 0.5001959708088572, 91666000000
-0.11152543850948998, 0.008593379204020486, 0.4999359657079856, 91671000000
-0.026823107444325242, 0.08249074854674561, 0.49979199505115657, 91676000000
-0.0026371683252024783, 0.18144179224107393, 0.49998499061125395, 91681000000
-0.12212014354690169, 0.0032876426004650808, 0.49964263142733767, 91686000000
-0.06702814483150686, 0.075338265585356, 0.4997764845844682, 91691000000
-0.0016068488501016847, 0.16481669479973843, 0.4995923690108609, 91696000000
-0.0947683548477252, -0.036310084915389784, 0.5000974710609127, 91701000000
-0.05688675607124098, 0.11210514107420065, 0.5005056757964371, 91706000000
0.009837402925361189, 0.18030051138489436, 0.4995904028135732, 91711000000
-0.10095575115780987, -0.0021672331898087934, 0.49972293308053434, 91716000000
-0.06115019208740828, 0.11883774395272521, 0.49958532446851417, 91721000000
-0.017704555278350794, 0.08293250144754619, 0.500017414793413, 91726000000
-0.08759149074794187, 0.08302986001488394, 0.50002133470877, 91731000000
0.010242770131205135, 0.1299844636737582, 0.49967133022119764, 91736000000
-0.1046139298848108, -0.011008693715290212, 0.4999157913018408, 91741000000
-0.039325842151682944, 0.09612721573140783, 0.49958639766651486, 91746000000
-0.011227262930075638, 0.2088638193981661, 0.4995851355440004, 91751000000
-0.11329232795968218, -0.013455851041160063, 0.4998897071390142, 91756000000
-0.02205127927235286, 0.1949813382794974, 0.49993159412949045, 91761000000
-0.11232355755383276, 0.012078819463346605, 0.49976035650036355, 91766000000
-0.08283852152204722, 0.11486060775519163, 0.4995664796696039, 91771000000
0.024543302311677066, 0.14140646385284555, 0.49965920429279087, 91776000000
-0.11458555370550672, -0.0012603009660767696, 0.4996457742722982, 91781000000
-0.013019839522932543, 0.09783800670195512, 0.4999927060338194, 91786000000
-0.016137278255895532, 0.17481265999812545, 0.4998592831967673, 91791000000
-0.12383932776140359, -0.04467050473047711, 0.4996520405348833, 91796000000
-0.07205526218782185, 0.10190718235580756, 0.5000110160807673, 91801000000
0.03467981100350495, 0.12265765973617815, 0.500070065457723, 91806000000
-0.10821664456152434, -0.019073396533457077, 0.5004112804366023, 91811000000
-0.08243651899706919, 0.10505011752528544, 0.4999277738341188, 91816000000
0.006721661472059619, 0.18334641445951644, 0.5001186799437426, 91821000000
-0.10585818163737831, -0.01948408733143549, 0.49996289173820496, 91826000000
-0.06140407646836212, 0.10802583277601036, 0.5002426064305764, 91831000000
0.022449553678888734, 0.15611796024882954, 0.4996152122606334, 91836000000
-0.08032577234024574, 0.013300639533223819, 0.5001977216064171, 91841000000
0.007712669510292369, 0.19396838485440598, 0.49984280540082454, 91846000000
-0.09619125789590459, 0.005868527742301115, 0.4998870438641779, 91851000000
-0.0764060268039844, 0.10092905540360277, 0.4999593688982788, 91856000000
-0.015136835392566378, 0.1951824920645259, 0.4998610462453672, 91861000000
-0.1330422046726227, -0.028298018074110552, 0.5001523049022676, 91866000000
-0.05926225912424202, 0.10574894219714417, 0.5000072169653267, 91871000000
0.02629193663796101, 0.16567596822535616, 0.4997719322422556, 91876000000
-0.14242949673466598, 0.0009323410692097626, 0.4995387849989366, 91881000000
-0.06484234384372102, 0.10000765383171123, 0.5004089571223559, 91886000000
0.019029758579782202, 0.1947627894377852, 0.49976017076296114, 91891000000
-0.116830639838914, 0.001734438662902571, 0.4996755254728091, 91896000000
-0.028774217395154143, 0.16368422783560427, 0.5000517175040273, 91901000000
-0.10389593378210353, 0.0002881249091171989, 0.4997913980382407, 91906000000
-0.0805051798859773, 0.07972956436941166, 0.5001364744927576, 91911000000
0.012002063529056545, 0.21710852572148048, 0.4999956024020565, 91916000000
-0.1265972614357907, -0.014977353228000242, 0.49978521014373073, 91921000000
-0.06422607973058699, 0.06917336757096837, 0.500024044837104, 91926000000
0.006698713564894911, 0.17125328264422418, 0.49997898357118914, 91931000000
-0.09740566955097268, -0.03949538183128658, 0.4998278467555788, 91936000000
-0.07684163049541584, 0.05193379955778516, 0.4999898309224935, 91941000000
-0.03083262048474714, 0.12284605359738424, 0.4998548640873751, 91946000000
-0.07659706913515227, 0.09655063453366189, 0.5000768990866039, 91951000000
0.030700384388198224, 0.20502150965999696, 0.49971928422632944, 91956000000
-0.1134865418800835, -0.032065402574989826, 0.4997778899543447, 91961000000
-0.053641141660362136, 0.11211215126633362, 0.4997515907989613, 91966000000
-0.07030768202058708, 0.08766693997127135, 0.4996444158228748, 91971000000
-0.05480138745191372, 0.08531551542134441, 0.4998033085591277, 91976000000
0.01071830173477086, 0.1983914605505462, 0.49976620115469583, 91981000000
-0.08873816103256187, 0.00448355380526908, 0.5000000765903863, 91986000000
-0.05858182294044613, 0.09761700798531373, 0.4999342474585124, 91991000000
0.005646676929488931, 0.17521180080767085, 0.4994228980626445, 91996000000
-0.1202762806426379, 0.001802597311266597, 0.4998408707966004, 92001000000
-0.04687052265123852, 0.09632229996129517, 0.4998580931536964, 92006000000
-0.04215486992587746, 0.08522135444372897, 0.49996266565359604, 92011000000
-0.055939818654497826, 0.07459551158120484, 0.5004387588537059, 92016000000
-0.050186568578847485, 0.10573060928149178, 0.49998174578398963, 92021000000
-0.050614333069357434, 0.07067939576687791, 0.499816302227151, 92026000000
-0.032883311397012505, 0.06994678983410765, 0.49998451777245134, 92031000000
-0.019250701698089463, 0.18832296509390337, 0.4999400896535294, 92036000000
-0.09748637903949382, -0.028177890496750586, 0.499583110968226, 92041000000
-0.06439485564806875, 0.04484123502867204, 0.5000540427772678, 92046000000
-0.005547375848548919, 0.07699044259465879, 0.49986797753643153, 92051000000
-0.0004273360878074867, 0.15247896583555354, 0.49979935587891383, 92056000000
-0.14456252675629902, 0.011500320559452645, 0.49970722106009835, 92061000000
-0.058904315067239886, 0.09869580824540888, 0.5001417764568681, 92066000000
-0.010496513966940587, 0.1866962659356857, 0.500038780276236, 92071000000
-0.1094006170088148, -0.025081536090959144, 0.5001293073561682, 92076000000
-0.0289662037163619, 0.1568703124378221, 0.49987827147157576, 92081000000
-0.08608439900843472, 0.0009667344070630377, 0.5000603169538785, 92086000000
-0.08835109807235869, 0.08380308116949484, 0.4999170660005029, 92091000000
-1.8922863138013204e-05, 0.18839743215984203, 0.4995687362476629, 92096000000
-0.12187253870900659, -0.03419263846451738, 0.5000995677669597, 92101000000
-0.05422948619018126, 0.09480398594535544, 0.4998716904170221, 92106000000
0.00012152727828053573, 0.17754331268407844, 0.4996090865775932, 92111000000
-0.1256523824336884, -0.06383227969922116, 0.4999331610489375, 92116000000
-0.05419203750439559, 0.09272406685246407, 0.49996105771418464, 92121000000
0.00644242364062452, 0.1611760954925866, 0.4996495862909993, 92126000000
-0.12202203281235235, -0.010926966338086909, 0.49995387602986746, 92131000000
-0.03857365601503252, 0.09593252567706383, 0.5002812959093983, 92136000000
-0.05323654480885259, 0.06881983131632514, 0.49956892003458114, 92141000000
-0.054872475682020166, 0.10180881576937788, 0.4999513702393182, 92146000000
-0.022155719677634078, 0.16089712454465685, 0.49977147288119034, 92151000000
-0.09532600497966995, -0.0359146138349976, 0.49964180964425897, 92156000000
-0.02951516752146933, 0.1259812351992498, 0.500048121029311, 92161000000
0.0016106106200121234, 0.14423055962431672, 0.5003140200627014, 92166000000
-0.10973226964179052, 0.0023739792058266604, 0.49948220834355883, 92171000000
-0.05508354962282564, 0.08954862520248258, 0.5001090370973532, 92176000000
0.014212415909645136, 0.17514252083361878, 0.4997608706418233, 92181000000
-0.0970544227952391, -0.013030700238686244, 0.4996969062159284, 92186000000
-0.031035766363142068, 0.07495649481731459, 0.5000330173957627, 92191000000
0.012895436517142747, 0.16714864405101876, 0.5000219113698458, 92196000000
-0.1045926789194375, 0.001689648798104515, 0.49969540034676785, 92201000000
-0.058496657547886924, 0.08643966917209825, 0.499869417172297, 92206000000
-0.030473279185393595, 0.169809040808082, 0.4999904255019581, 92211000000
-0.11597565316582527, -0.027486510686266622, 0.5001330024203566, 92216000000
-0.032666316133464046, 0.06363911333241376, 0.4995115248685951, 92221000000
-0.040777542711620166, 0.07183775190040696, 0.49950420833131254, 92226000000
-0.07190838611483268, 0.06692401243529233, 0.4999558631384454, 92231000000
-0.03193820734817469, 0.1808164998891494, 0.49965159478628174, 92236000000
-0.10836472033826688, 0.0034441142816797185, 0.5002860880031387, 92241000000
-0.10115077741498346, 0.10266203250156813, 0.4996134782555514, 92246000000
-0.0032062667558072997, 0.19747275031445513, 0.5000870856273733, 92251000000
-0.06472555345723682, 0.001453037520816769, 0.5001586648851479, 92256000000
-0.04542079970911482, 0.061206251169789394, 0.5001052964915733, 92261000000
-0.019586181492398866, 0.1611539344014204, 0.49997997354401946, 92266000000
-0.10615547454368084, 0.018231919684747213, 0.5003817491696582, 92271000000
-0.04169702408576591, 0.10165871282334503, 0.5002307773214858, 92276000000
-0.016431366665005026, 0.1755804890218269, 0.5000043580841521, 92281000000
-0.1335287259805583, -0.013646809075982615, 0.49966709546741805, 92286000000
-0.016079098060254954, 0.059756403820853614, 0.5000835607975176, 92291000000
-0.056130336219300955, 0.07962148582104701, 0.49971640926247146, 92296000000
-0.05164457572513077, 0.09324586015226394, 0.4999219521889487, 92301000000
-0.005664755505546691, 0.19068054152679123, 0.5001619467740901, 92306000000
-0.14467730638182702, -0.048818272865315156, 0.49968301433915513, 92311000000
-0.04023916772735142, 0.05612716790547889, 0.5000600945279743, 92316000000
0.021117531334813887, 0.17475513887340455, 0.4999114845712492, 92321000000
-0.11008354088553969, -0.001429032317014839, 0.499725389747838, 92326000000
0.012590760049986962, 0.14607632830524522, 0.49985567173451134, 92331000000
-0.13495357815097328, 0.005044430893927813, 0.4996803827546406, 92336000000
-0.05264092346759349, 0.0833324278542225, 0.499836732689089, 92341000000
0.016469104750129266, 0.171688255073226, 0.4998438136336723, 92346000000
-0.1254938404825918, -0.003547068087999832, 0.500013503483766, 92351000000
-0.07520843307589736, 0.11272303820615294, 0.4997378135210481, 92356000000
-0.0665265706089734, 0.05807127182489704, 0.499680635665111, 92361000000
-0.07685321472338136, 0.11740295514156596, 0.49929348279927505, 92366000000
0.0014345170949738618, 0.18138079938592874, 0.49929774481934114, 92371000000
-0.1077537409747766, -0.014312648217478314, 0.4997946921668837, 92376000000
-0.03586969741577216, 0.08438910640264236, 0.5001257565162661, 92381000000
0.0063281104833590555, 0.17170865973627855, 0.49978351611794963, 92386000000
-0.10717529361431037, -0.022068728781075585, 0.50008809830774, 92391000000
-0.06303311260312487, 0.08713734210564272, 0.4997203787312846, 92396000000
-0.06340099976662857, 0.09901399530016099, 0.499839505847931, 92401000000
-0.073585311750242, 0.10293010755927605, 0.4997811663338569, 92406000000
-0.003643520739775674, 0.17514196636102589, 0.5000259036688512, 92411000000
-0.14487018011440939, -0.04997637207443442, 0.49980155379598373, 92416000000
-0.056303453106421396, 0.09798064058725692, 0.5003587903833902, 92421000000
-0.0024397142776435344, 0.2173676222205541, 0.49984821075408115, 92426000000
-0.10173279982128447, -0.012704856806842357, 0.5000131082765022, 92431000000
-0.03545521822567811, 0.09175101606184369, 0.4999970232635462, 92436000000
0.015023794205436033, 0.1910469016210385, 0.49961089869504244, 92441000000
-0.10256219171400303, -0.005846955459131333, 0.499842813576514, 92446000000
-0.048820907028197615, 0.08572085347393568, 0.5000177565033865, 92451000000
0.0106664187465825, 0.1870737759771213, 0.49984760858019495, 92456000000
-0.09296429362795203, -0.005747501850785212, 0.4999140330841651, 92461000000
-0.02136543902623533, 0.21397580589199883, 0.5002668396693802, 92466000000
-0.11892410628880326, 0.01617979403669868, 0.5002029471438701, 92471000000
-0.045065931685026865, 0.10483458586719632, 0.500136587081897, 92476000000
-0.012052379372117304, 0.16770334827168937, 0.4999580082024916, 92481000000
-0.12740882198594222, 0.00703494913870447, 0.5001603013588897, 92486000000
-0.014821663364580986, 0.14127879557585418, 0.49965479269007573, 92491000000
-0.08407940071282295, -0.01800692745872047, 0.4995059997828117, 92496000000
-0.05170778331263476, 0.09838783703705631, 0.49980833254968904, 92501000000
-0.07770946500346923, 0.09215764361706931, 0.49980956088111295, 92506000000
-0.06652712270262935, 0.08752982310667233, 0.4999468113064685, 92511000000
0.010940295572191438, 0.16496277766394518, 0.5001999228149029, 92516000000
-0.09041280368709344, -0.03429871262227577, 0.4997851014971227, 92521000000
0.012843507852470279, 0.19855587766134533, 0.4996240488960191, 92526000000
-0.12803040209304378, 0.00013987901559383122, 0.49990474772724003, 92531000000
-0.06841221361909479, 0.09680364385446906, 0.4996743102883434, 92536000000
0.01329072705412771, 0.1727912320067972, 0.4997696798313574, 92541000000
-0.1372404917298879, -0.009945405362843569, 0.5000273718040362, 92546000000
0.005020164442536541, 0.15090966011893905, 0.4995702390240508, 92551000000
-0.1500867688665556, -0.031248313508565728, 0.49996375109495444, 92556000000
-0.045617624068350744, 0.07006333381765191, 0.5000113574146624, 92561000000
-0.042395929776182166, 0.1260759120981847, 0.5002390504599158, 92566000000
-0.09312798494073472, 0.005189008250240238, 0.4998695707419532, 92571000000
-0.07893382097051418, 0.0811357617150424, 0.49992605821698666, 92576000000
-0.00908849046214405, 0.17044107564472555, 0.5000744565717902, 92581000000
-0.09526366918564788, -0.00041213375427617913, 0.4996875081053744, 92586000000
-0.0680755886802699, 0.08107683538737485, 0.49961254662579824, 92591000000
0.00688888539728139, 0.18340160265920172, 0.49977097894722233, 92596000000
-0.10952904335861899, -0.025955181052561206, 0.4999802925740172, 92601000000
0.04999361783835158, 0.1700607476144892, 0.4998803935458544, 92606000000
-0.11403506358070117, -0.027279229039356333, 0.4996575642900001, 92611000000
-0.05736172029269038, 0.1006721203191618, 0.49972445861557685, 92616000000
-0.007493540969481684, 0.16642917690279915, 0.5000331794591303, 92621000000
-0.10319559414208396, 0.008737411342120027, 0.5000749637751656, 92626000000
-0.07659176347259881, 0.10797990711261177, 0.4999705485120192, 92631000000
-0.032161561066339765, 0.1045200502964115, 0.5001821626811116, 92636000000
-0.0635143862170531, 0.09009025723214217, 0.5000666617641821, 92641000000
0.0007694651758904953, 0.18199541032453154, 0.4999075700849644, 92646000000
-0.10628940242422444, -0.0282609256937813, 0.4999161291044928, 92651000000
-0.04400732896205991, 0.09935208100485367, 0.49996115587091094, 92656000000
-0.022644716152353167, 0.21511836217003816, 0.4997833923845178, 92661000000
-0.11809327076283424, -0.012270392535085491, 0.49977484158750546, 92666000000
-0.010645628429247714, 0.16810753648431673, 0.4999017695884301, 92671000000
-0.11733044030738285, -0.001559565727795741, 0.4997261710906101, 92676000000
-0.05695091051384642, 0.06840442519381404, 0.4997435868704727, 92681000000
0.029032513888537323, 0.1887340098930783, 0.49958285939982544, 92686000000
-0.11456088680689645, -0.012671519752924083, 0.4999669475538723, 92691000000
-0.059609320959928484, 0.08543961499760962, 0.5002776308766015, 92696000000
0.02601697676065561, 0.2116187158875288, 0.4997843279958873, 92701000000
-0.12565014154735077, -0.010175730986420495, 0.500091216286112, 92706000000
-0.053537451905961035, 0.07941285635680757, 0.500205927500478, 92711000000
0.04391635616776826, 0.16435251802503903, 0.4996784681400573, 92716000000
-0.12052742801144327, -0.02310498288649436, 0.500217411682324, 92721000000
-0.0706249427097726, 0.09087187845939454, 0.5000479158550338, 92726000000
-0.04905926365209016, 0.11903600933557613, 0.49955685048604415, 92731000000
-0.06636321859452943, 0.046344066378276254, 0.5001077855831182, 92736000000
-0.017395279684703727, 0.14726115763429876, 0.4999749298120155, 92741000000
-0.0997860442044555, 0.015433362813127866, 0.4996108979975704, 92746000000
-0.06093231715461042, 0.058970868645967664, 0.4998163151545202, 92751000000
0.01719136627173962, 0.18029575291972244, 0.49987438444278814, 92756000000
-0.1464761271632334, -0.021019271300363494, 0.49984704964913323, 92761000000
-0.051798586840252944, 0.08347385600169324, 0.49969056888933344, 92766000000
0.04490972784193101, 0.16426740780041232, 0.4999137002520163, 92771000000
-0.08615884457416098, -0.02199734827955472, 0.4998710748019394, 92776000000
-0.06670647629243315, 0.09966963215397305, 0.4999357116470987, 92781000000
-0.03725478500044953, 0.15018768220757187, 0.4994191383408832, 92786000000
-0.11436152922821988, -0.009067291637564114, 0.49981766595886395, 92791000000
-0.019606985019117652, 0.18532843786497374, 0.49967219805019203, 92796000000
-0.09312653587816752, -0.04203292943469023, 0.49999682422207264, 92801000000
-0.024986053439991825, 0.10019515591333533, 0.500229766794673, 92806000000
-0.0420477540181865, 0.14361445374267873, 0.4995907159233547, 92812000000
-0.14205734109241097, -0.053915184917774014, 0.5001607775346276, 92817000000
-0.0663977263596771, 0.11792240559831058, 0.5001016880110488, 92822000000
-0.04432913063338369, 0.10173843049870518, 0.4997031900530693, 92827000000
-0.10512677361059143, 0.07358303669047504, 0.5002126709314971, 92832000000
0.013510820614193057, 0.16249759932380442, 0.5000559993317195, 92837000000
-0.09637862207889897, 0.004849337742837294, 0.4998537215271061, 92842000000
-0.046082252038720364, 0.09109890285982004, 0.5000855043002107, 92847000000
-0.028587997175298276, 0.1465015775138562, 0.4999139306532186, 92852000000
-0.11388209952063899, -0.009931273027988548, 0.4998590944302848, 92857000000
-0.08390654600575417, 0.08265534415640778, 0.49961024565951473, 92862000000
-0.06256402337961908, 0.0817880806913858, 0.49989811996956296, 92867000000
-0.06637211605947367, 0.10279160939779322, 0.4999039868686929, 92872000000
0.013204288507634228, 0.2014629479725547, 0.4994187492382798, 92877000000
-0.11603361585166636, -0.028844386483504035, 0.4998432654234184, 92882000000
-0.054209361861117154, 0.0845155273538377, 0.5000797151847618, 92887000000
-0.039753727769812494, 0.06966624547585448, 0.5001413135838202, 92893000000
-0.08957384151849411, 0.09727692219038071, 0.49991242714395007, 92898000000
0.00988420916357735, 0.1712290181334195, 0.49988987432490417, 92903000000
-0.14545608989053888, 0.02957321786060875, 0.49992641980793273, 92908000000
-0.06736342221323717, 0.07582111938466543, 0.5000124611355314, 92913000000
0.005311616425696392, 0.17967436016730573, 0.4996944738454299, 92918000000
-0.06828711237371056, 0.03198960809811482, 0.49975841130270604, 92924000000
0.015751498758576347, 0.20416991302075466, 0.49964971721676116, 92929000000
-0.09886748006360443, -0.009627470924328339, 0.4998318146037531, 92934000000
-0.08906598996228546, 0.10053011976882956, 0.5000435831288447, 92939000000
0.010098185458551871, 0.15781244124699212, 0.4994774124449742, 92944000000
-0.10410740020754522, 0.010240961105418733, 0.4999055978947971, 92949000000
-0.05481331766064486, 0.07952772151304868, 0.5002626935297474, 92954000000
-0.030117675683595184, 0.08569680540064521, 0.49997145181361274, 92959000000
-0.048923182919307126, 0.0513774789969564, 0.5000378737209371, 92964000000
0.005020001221429194, 0.17880314272936973, 0.49988134579053733, 92969000000
-0.08602913578201198, -0.01535043322245044, 0.5002394822443577, 92974000000
-0.03651620471439645, 0.10062791848893271, 0.49977545339762747, 92979000000
0.005182417925525609, 0.1833125980590692, 0.4997631419191512, 92984000000
-0.11288267359397498, -0.015303932907232594, 0.49978038632026905, 92989000000
-0.05503028879971155, 0.0903786184556099, 0.49959738798024617, 92994000000
-0.092542195128896, 0.07264331424690468, 0.5001126597392749, 92999000000
-0.08639670010879102, 0.08336256301339258, 0.5001473392072385, 93004000000
-0.0025558131666485774, 0.17546148685488178, 0.4996909629694241, 93009000000
-0.10953453125710384, 0.015105804259239373, 0.49970734253379834, 93014000000
-0.05592499953774017, 0.0993687482649147, 0.4998578962533252, 93019000000
0.016598443107872618, 0.19824314461134854, 0.499597074259865, 93024000000
-0.12011901449031226, 0.01051856763757147, 0.49965215880826985, 93029000000
-0.050790993209688565, 0.07949994969053174, 0.500067744486979, 93034000000
0.015902247274532773, 0.1851119774947718, 0.4999270909050842, 93039000000
-0.1219920834642019, -0.021705851962171473, 0.49974147377574063, 93044000000
-0.06992099379794489, 0.0941968590086143, 0.49998201659623526, 93049000000
-0.005417172305391379, 0.1917329290206339, 0.5001921957771543, 93054000000
-0.09986306529951788, 0.017589294360694837, 0.5000065532980603, 93059000000
-0.09186830891058227, 0.11132130189349132, 0.49984666510234826, 93064000000
-0.047293341115148414, 0.09435038643574784, 0.5001096446978467, 93069000000
-0.09788580582915404, 0.06887086094607468, 0.5001954926531234, 93075000000
-0.0022596191788966206, 0.2038355087072613, 0.49991478394847116, 93080000000
-0.12007939838531043, -0.022679877694299834, 0.4999008686751459, 93085000000
-0.02182964704517223, 0.17803040552371183, 0.49986948745498416, 93091000000
-0.11349058882353988, -0.030204909435780324, 0.49966681334963114, 93096000000
-0.07716022158346988, 0.09554838621820987, 0.49978263496868286, 93101000000
-0.024432356648384952, 0.08284939802754622, 0.5000408112225373, 93106000000
0.00608285435604918, 0.15306278354297245, 0.49962106418378216, 93111000000
-0.10015087490516723, -0.010576277873973998, 0.4999972955807701, 93116000000
-0.026726172337398865, 0.09121012112700237, 0.49988340902458883, 93121000000
-0.05659913549484945, 0.05698158622357541, 0.49969873518004176, 93126000000
-0.06615960544767674, 0.06421564757676415, 0.4999292027189775, 93131000000
0.003610610079631229, 0.16632457226355862, 0.4996280717376213, 93136000000
-0.09451033324776928, -0.012193129375015932, 0.4998564561827496, 93141000000
-0.05331893221250747, 0.08978941348330186, 0.49982064613551774, 93146000000
-0.0013164437195014316, 0.16572636365543167, 0.4998149165715064, 93151000000
-0.13692797716704844, 0.005403200414074445, 0.49989052996920524, 93156000000
-0.0019938561545325226, 0.18953633771264103, 0.5001484156881586, 93161000000
-0.07976150325180935, -0.014897340667103754, 0.49992979856237674, 93166000000
-0.04560023845169467, 0.0832784455753457, 0.5001318108277311, 93171000000
-0.009894845725069105, 0.1815612977146327, 0.49984352452410774, 93176000000
-0.12259383653863413, -0.042302476687481286, 0.4996599486798164, 93181000000
-0.06296330623503084, 0.0809529346719754, 0.5002938926961573, 93186000000
0.011821976247800745, 0.17080735899211127, 0.49990502534718884, 93191000000
-0.10223610596364448, -0.013298608857404012, 0.49975684832955275, 93196000000
-0.06385147146715585, 0.07170667147806403, 0.49986961705712446, 93201000000
-0.02083672537992242, 0.17582175161572292, 0.5001594074530724, 93206000000
-0.07273094067751792, -0.02640555840379518, 0.5002333833121043, 93211000000
-0.02656569178561318, 0.15144777185495287, 0.49997602529796104, 93217000000
-0.10816720841882528, -0.06249100532262232, 0.4999413967874196, 93222000000
-0.03174576895621825, 0.08315664306428745, 0.4999913177627531, 93227000000
0.010760824402718725, 0.17248312089042042, 0.5000367054860393, 93232000000
-0.10832170129282592, -0.002634348823011296, 0.5000923535503993, 93237000000
-0.0518143037683314, 0.07870962734117155, 0.5000137414687126, 93242000000
-0.0005664494487679948, 0.1481177717029348, 0.49944132339093367, 93247000000
-0.09632040362777675, 0.014869612852592529, 0.4997257431459797, 93252000000
-0.06499913532479569, 0.0760024301597236, 0.5003039687472228, 93257000000
-0.04465004957651464, 0.07126526296312113, 0.4998442762203717, 93262000000
-0.041267357640609896, 0.09164159208218726, 0.4996913163298313, 93267000000
0.005176932505087691, 0.2172310119339942, 0.4998438976700521, 93272000000
-0.10736787476823186, -0.011585542499953996, 0.5000044224458285, 93277000000
-0.056034660164314506, 0.08012146056865407, 0.49993081846784515, 93282000000
-0.00961080222318074, 0.1721474697629571, 0.4996725816077995, 93287000000
-0.10978885624244634, 0.008331855793090454, 0.4999618571650631, 93292000000
-0.04930370401609452, 0.07166995226171283, 0.49981738605267906, 93297000000
0.011440885861360708, 0.16912485431446556, 0.4995146515363988, 93302000000
-0.1158904972399769, -0.03353402435639933, 0.49993422000599624, 93307000000
-0.003223219061744033, 0.18342899740033505, 0.5000279807198992, 93312000000
-0.0817018036555342, -0.02825466347323062, 0.4999303528578773, 93317000000
-0.04529953849850777, 0.08667333576452119, 0.49963686946045993, 93322000000
-0.0025263776420384903, 0.14867115461521455, 0.49994894626850195, 93327000000
-0.12157728926907768, -0.014912823126883084, 0.4999483073439504, 93332000000
-0.044891861505610635, 0.06922091350263038, 0.49979602965540115, 93337000000
0.029903873384416142, 0.1642024593536121, 0.49954823879770294, 93342000000
-0.1270225739294054, -0.02803944092274112, 0.4999386825856196, 93347000000
-0.045385915793672106, 0.08712889734691191, 0.500239845606481, 93352000000
-0.03594527032396243, 0.08877216718815407, 0.4995795677614945, 93357000000
-0.08689232250255662, 0.06542459235174876, 0.5000248582763357, 93362000000
-0.001433002197047779, 0.19588922343064136, 0.4999079157352678, 93367000000
-0.11573272222049816, -0.017211852549914183, 0.49992833187257896, 93372000000
-0.02428562966865628, 0.07569288259426353, 0.49997053091875343, 93377000000
-0.013203474943281555, 0.209861449489872, 0.49986003099894855, 93382000000
-0.14093125491199307, -0.025712189385183104, 0.4998861073550419, 93387000000
-0.0380148222436599, 0.16662810286010965, 0.4999271704041723, 93392000000
-0.13052884610215681, -0.015629806401651215, 0.49968333832648804, 93397000000
-0.060045179085216775, 0.06561807804776183, 0.5001302245708352, 93402000000
-0.029497310545173426, 0.1370672247987352, 0.5002847976091451, 93407000000
-0.1432495816823004, -0.03427941409196717, 0.49977032868079685, 93412000000
-0.06703117366897512, 0.10717735861234899, 0.49974629906577506, 93417000000
-0.021428456909869675, 0.04242169045204117, 0.4995180196649413, 93422000000
-0.07213150271401213, 0.08323780835449202, 0.5004723450954749, 93427000000
-0.016049709064014754, 0.2044838176679135, 0.49976287920131435, 93432000000
-0.09514355841901141, -0.002674165382413666, 0.4999775575735298, 93437000000
-0.047136643969301756, 0.1234665023883112, 0.49982732423966175, 93442000000
0.0028797391273608043, 0.16514364766240094, 0.4997882952814523, 93447000000
-0.09367844670956095, -0.04018804195952509, 0.4999172275791354, 93452000000
0.0056148094699524885, 0.16019990635584466, 0.5002206849371005, 93457000000
-0.10485402362857732, -0.0007654447937591284, 0.5000444554570755, 93462000000
-0.042137911760357714, 0.05978696031586217, 0.49965685514968106, 93467000000
-0.024349580545105085, 0.18931893398764424, 0.4998111098413365, 93472000000
-0.0928247468754702, -0.01931461424598733, 0.5001228585540891, 93477000000
-0.03971729682895703, 0.06983462879616643, 0.49993573404435576, 93482000000
-0.06997176755353682, 0.06355021545817707, 0.4996104746144967, 93487000000
-0.06638529639071307, 0.06482211672569095, 0.4999436420207908, 93492000000
-0.04380451430281826, 0.0952529745141744, 0.5003621052765548, 93497000000
-0.03893806396019759, 0.10323705824254074, 0.49970434222298993, 93504000000
-0.02045971872962415, 0.12420336876376291, 0.5000366400418452, 93509000000
-0.10473634231291147, -0.01809710526931697, 0.49975968798270576, 93514000000
-0.050236631634904896, 0.06742433150460736, 0.4998570273257358, 93520000000
0.007379940845060494, 0.21363316621673045, 0.49975701696740515, 93525000000
-0.14467064055513387, 0.0018190216039717065, 0.5002406216286333, 93530000000
-0.01835955999955731, 0.18440607505725098, 0.5000050568207536, 93535000000
-0.09215957723993157, 0.004929191342687217, 0.49982188909019065, 93540000000
-0.03768583902301281, 0.09921597555939515, 0.499740216634112, 93545000000
-0.010220999822580588, 0.16154003562310043, 0.4999817265346646, 93550000000
-0.15065324560036086, -0.017448419082374638, 0.4995598179555665, 93555000000
-0.06921122520558554, 0.09437159170438231, 0.4999788964564444, 93560000000
0.011301606221090468, 0.18513381809332627, 0.4998610073049422, 93566000000
-0.11826732874004076, -0.022740906144154804, 0.4996645750882536, 93571000000
-0.029907767145681854, 0.17397065421733005, 0.5001365574672275, 93576000000
-0.11071487900661028, -0.0286140403461905, 0.49978141811171534, 93581000000
-0.06006730995628636, 0.09159046361403722, 0.4999968554996281, 93586000000
0.010442674759769736, 0.1608981472345442, 0.5000389310505144, 93591000000
-0.1021182018756121, 0.0007857136785034899, 0.5003375485771004, 93596000000
0.0020250858676064995, 0.20728477728345765, 0.4998381203372973, 93601000000
-0.11286119737296285, -0.00707664326335556, 0.49985530904401204, 93606000000
-0.08148615793213042, 0.050108993528649594, 0.5002855629712147, 93611000000
-0.008215825603646369, 0.18314209092048045, 0.49974183105878994, 93616000000
-0.11686482223095147, -0.0037418032095286958, 0.5000078757999301, 93621000000
-0.002057569207729964, 0.1952337623814448, 0.49972610266609035, 93626000000
-0.07363227386015632, 0.013755981464349913, 0.4994828465331654, 93631000000
-0.07005219697069826, 0.05417591452140137, 0.4996400696200187, 93636000000
-0.02065648927627764, 0.18540712651417457, 0.49967489885413513, 93641000000
-0.11037121338517922, -0.005115276095548337, 0.49990041398192425, 93646000000
-0.03192566770657022, 0.12258657408931091, 0.4998998573073319, 93651000000
-0.01940924270438029, 0.1788070173486613, 0.4996702908600501, 93656000000
-0.12499195546506443, 0.014524867490657081, 0.4994774957134906, 93661000000
-0.052918196202388766, 0.0901974457889566, 0.4999772424942003, 93666000000
-0.014073264416808326, 0.17588836175962272, 0.4998327677026486, 93671000000
-0.1388276177714013, -0.05828847691670566, 0.4995276572088852, 93676000000
-0.055078717250976454, 0.1021725882141402, 0.49967939057589944, 93681000000
-0.0031404194204958887, 0.16946104103257179, 0.49995518067579137, 93686000000
-0.11441537225832538, -0.023856733085538224, 0.49977484763733493, 93691000000
-0.06828298379113307, 0.0816984894783502, 0.5001117364211485, 93696000000
-0.004444783325389485, 0.19101444878422452, 0.49980604985241567, 93701000000
-0.08537544554346252, -0.00029905446751174805, 0.500177971365518, 93706000000
-0.0378690902522853, 0.1667858274019008, 0.4998837952165162, 93711000000
-0.11060353826770569, 0.004107464662209114, 0.5001453354440475, 93716000000
-0.04378338936342633, 0.09158309409319525, 0.49948839718975285, 93721000000
0.01198412619132348, 0.1789118435042901, 0.5001713325638371, 93726000000
-0.10943667028536526, -0.014738082172907237, 0.5000472738687257, 93731000000
-0.03924100903863381, 0.08433095456797271, 0.4997685985295727, 93736000000
-0.061469350179073845, 0.06886201113484398, 0.4997560196862134, 93741000000
-0.031051443136217396, 0.0716519219620825, 0.500054720350917, 93746000000
0.01544003520879593, 0.17179773389127925, 0.49961861003600844, 93751000000
-0.09077122263800977, -0.03671839947557248, 0.5000145090645238, 93756000000
-0.06376803808237705, 0.06646942840436484, 0.5003263340702281, 93761000000
-0.015991085892916625, 0.20934619089961598, 0.5000246046578342, 93766000000
-0.09311583589259102, 0.003903649977610897, 0.4995196713267014, 93771000000
-0.07013185610501407, 0.13608345419069184, 0.50002294618938, 93776000000
-0.01857785255726687, 0.17254277218154468, 0.4997973072007931, 93781000000
-0.10404993288112283, 0.02320530482922102, 0.5000319005165282, 93786000000
-0.05465931069155019, 0.09952585910941722, 0.49987149526177393, 93791000000
0.002104024473023492, 0.18292088768512949, 0.5000394519716939, 93796000000
-0.1115091285488312, -0.03871892174818068, 0.49972069776463873, 93801000000
-0.04975667019613781, 0.08090020733588237, 0.5002555146767165, 93806000000
-0.06648265549916635, 0.1271846663886871, 0.49955885455087684, 93811000000
-0.05719412278794507, 0.05384026595227683, 0.5000460564179215, 93816000000
-0.022494655806974326, 0.17625071832504266, 0.5001010997820545, 93821000000
-0.07392689891324258, -0.03757855731391139, 0.4996608343386515, 93826000000
-0.051394008335830126, 0.0977551260124205, 0.5000378849366063, 93831000000
-0.0007140201733291586, 0.16111553391099442, 0.4999807410106162, 93836000000
-0.12288672551281335, -0.02253656021750881, 0.49984610150439873, 93841000000
-0.060005317809492434, 0.08705727999159167, 0.4997753000280782, 93846000000
-0.060961852887082724, 0.05734012250565911, 0.4997798925576295, 93852000000
-0.0906234313314087, 0.047266993723292475, 0.49973075323320265, 93857000000
0.023869304853613285, 0.16074998517702527, 0.499893060045683, 93862000000
-0.1394152527480485, -0.013832889440808889, 0.4998417713592973, 93867000000
-0.07314240069065633, 0.0907981606593776, 0.5002711789878935, 93872000000
-0.009134114994017364, 0.21201346243237618, 0.5000047654747057, 93877000000
-0.1294325145820539, 0.0039414255855634, 0.4997446972644038, 93882000000
-0.06669881574742362, 0.0748933716247176, 0.4998038750306185, 93887000000
-0.02869295349867654, 0.0979643072607493, 0.49974919953349034, 93892000000
-0.05657864844291268, 0.03471767997878779, 0.5001626798178369, 93897000000
0.014875443766508924, 0.15198657511907904, 0.49967750363090646, 93902000000
-0.10333922986104453, -0.04356801768766329, 0.4998554877895688, 93907000000
-0.05469142901001092, 0.07302969069260118, 0.5002031360271426, 93912000000
0.0286771043581621, 0.19452676003513045, 0.5003097525129621, 93917000000
-0.10189799490834389, -0.023124627170344622, 0.4998214508429677, 93922000000
-0.03807475468641827, 0.07023078385938786, 0.4998067480581731, 93927000000
0.0054923992789404595, 0.1766499835070036, 0.4997937454713906, 93932000000
-0.10995554722859717, -0.015540723090410111, 0.4995442153659476, 93937000000
-0.03267601594605402, 0.15694871964631, 0.4997081848733905, 93944000000
-0.10935354275417589, -0.03682802514291372, 0.49958183152641816, 93949000000
-0.04208868688216959, 0.07313727872557228, 0.49986715592720515, 93954000000
-0.012954416404655736, 0.17941902228999707, 0.49980124015797095, 93960000000
-0.13361816345423233, -0.02142880278883172, 0.4996552062029072, 93964000000
-0.04451605824710551, 0.06459645001463402, 0.4998127757141929, 93969000000
-0.03508563233836292, 0.08679490670308902, 0.4996937128070492, 93974000000
-0.09791674884008411, 0.07795586421846368, 0.4999466682322529, 93979000000
0.00464637623084499, 0.18110919068027392, 0.49974670660019177, 93984000000
-0.10749061801577461, 0.00015195950277303166, 0.49982956846106513, 93989000000
-0.040225322892450247, 0.08118005826920098, 0.5001939054181558, 93994000000
0.018552307128991495, 0.2019249733242671, 0.5001151522961551, 93999000000
-0.15954605707144853, -0.01231764142527364, 0.4999300482737342, 94004000000
-0.04096469713834714, 0.19574069034104033, 0.5000810820661783, 94009000000
-0.08393257810569715, -0.004542384707146632, 0.4998282866433913, 94014000000
-0.0704665259646046, 0.10047772355221343, 0.5000416713248163, 94019000000
0.008845312637770726, 0.1547245554674483, 0.4996834807435053, 94024000000
-0.08375809539833978, -0.009479060188928832, 0.4999932958272989, 94029000000
-0.05579003697214631, 0.10511602855704462, 0.4997226857906594, 94034000000
-0.05362293290325841, 0.09068562322239063, 0.4993999891015899, 94039000000
-0.030592602621291036, 0.08298758853119702, 0.4997980499421563, 94044000000
0.0020343034590862494, 0.2119653448960382, 0.4999987976339322, 94049000000
-0.12365136269210766, -0.027037961958571027, 0.4999533248564664, 94054000000
-0.025768784122259646, 0.036626782729869634, 0.49979410363401705, 94059000000
0.003734156338115518, 0.18279759591590478, 0.4997596472245211, 94064000000
-0.11808179976164013, -0.014012151010237938, 0.5001187168693627, 94069000000
-0.04290635632875882, 0.08937247441347032, 0.5001364260203107, 94074000000
0.0074558583299251, 0.19760362493440942, 0.4993264163561079, 94079000000
-0.09256780727559734, -0.03278110575257809, 0.5003685314225732, 94084000000
-0.02159481916778641, 0.18260159093134676, 0.4997705356894323, 94089000000
-0.09354377210467757, -0.015499185166830541, 0.4997099672623369, 94094000000
-0.07371983016236804, 0.04858577503605335, 0.5001204187053938, 94099000000
-0.025438378164862892, 0.16312186265519843, 0.5003393584573627, 94104000000
-0.11067048202644804, 0.0036215999747306474, 0.4995697701736284, 94109000000
-0.07745125694409052, 0.06760294026242922, 0.4999770694929004, 94114000000
0.015288937572943428, 0.16123618246894955, 0.49981503064305177, 94119000000
-0.09928919655028846, 0.003734618645492438, 0.49986331026071945, 94124000000
0.010161737914851936, 0.18840365164490924, 0.4998233929478592, 94129000000
-0.09107444941942429, -0.03262168862067731, 0.4998445983921115, 94134000000
-0.05403423163127593, 0.10493472281737892, 0.5003221782650505, 94139000000
-0.003930639430347906, 0.22258186129568044, 0.49953591598806235, 94144000000
-0.1048090594439845, -0.00289881296025467, 0.4995754790159942, 94149000000
-0.03534511082276692, 0.07286280308435668, 0.49961925277685204, 94154000000
0.03434584070484239, 0.14622373967141034, 0.5000326590678226, 94159000000
-0.09997600835183094, 0.009689890057226893, 0.49968991069102775, 94164000000
0.0008455517157942277, 0.1825505581907163, 0.500183492281038, 94169000000
-0.1106115771113586, 0.019793278369811325, 0.499537594794321, 94174000000
-0.06785926561630663, 0.07193381288360008, 0.49999662939239836, 94179000000
-0.018776226724372947, 0.16054769438648264, 0.49961982787153664, 94184000000
-0.12295115207969594, -0.002743783911830078, 0.499667881580843, 94189000000
-0.0361246439728989, 0.0831470730809117, 0.4997772329380944, 94194000000
-0.04921484549232527, 0.08027995664404367, 0.5001458066810914, 94199000000
-0.08138832352571479, 0.07992891190201917, 0.4995093289686883, 94204000000
-0.07455437282088452, 0.09291435965225703, 0.4996740465126759, 94209000000
-0.04245031622675771, 0.0821305895241964, 0.5000422954181398, 94214000000
-0.06550792052633528, 0.047510264637031854, 0.49997365009759925, 94219000000
-0.006564873933644178, 0.2045190314878121, 0.49981541612198105, 94224000000
-0.09390202701504147, -0.008256282769208926, 0.4998303127475281, 94229000000
-0.05277621578908021, 0.10338411305513835, 0.5002163487760621, 94234000000
-0.005905345702630354, 0.21693575696720077, 0.49984304123402484, 94239000000
-0.12632998478055996, -0.036249968004995935, 0.4996497642622688, 94244000000
-0.026278657445700678, 0.1626547377436594, 0.5000187581896954, 94249000000
-0.12377231430238572, 0.027736929706064978, 0.5004160496574045, 94254000000
-0.03195293387799278, 0.07722481222183969, 0.49985933482146366, 94259000000
-0.00803820535223061, 0.18131154429161322, 0.49987668771778326, 94264000000
-0.11644479054465715, 0.01183772859850422, 0.4999589447911851, 94269000000
-0.001415876881169044, 0.12322583339580855, 0.4998322570704185, 94274000000
-0.07860943578728136, 0.10475644767842221, 0.4996443676340177, 94279000000
-0.06919916299926177, 0.06654413867001412, 0.4997734729309926, 94284000000
-0.01575039360575685, 0.15814172129573584, 0.49987288806496355, 94289000000
-0.11435995462859452, -0.023090689831136553, 0.5000758290470004, 94294000000
-0.0650853334684043, 0.08242052303184166, 0.4998873758570515, 94299000000
0.011323861212275124, 0.139195817045196, 0.4994377370253834, 94304000000
-0.11901596221524166, 0.004494045902736034, 0.5000379510759306, 94309000000
-0.032108733331706746, 0.1962570514559698, 0.5002294863822805, 94314000000
-0.10071525745557305, 0.012404171371836845, 0.499673420086928, 94319000000
-0.03246246549139981, 0.10841455504820482, 0.49973010705478155, 94324000000
-0.005062653918455809, 0.1720326497027315, 0.5000332002333239, 94329000000
-0.11149547674464849, -0.01771109601731733, 0.4996919945511194, 94334000000
-0.0021431835875090136, 0.09618296462718437, 0.5002350487747106, 94339000000
-0.0562405702513353, 0.07200193704257696, 0.49991145025470163, 94344000000
-0.06098311257615104, 0.06385968057392487, 0.4998450989999429, 94349000000
-0.005583877376643861, 0.18672710523583796, 0.500314638605156, 94354000000
-0.08643797398423339, -0.03648556784170213, 0.49957557084583554, 94359000000
-0.06921063487548766, 0.08228213650671024, 0.49976064035433626, 94364000000
0.026028749265205983, 0.1701985584048816, 0.499883111809658, 94369000000
-0.1287562343084296, -0.004717188589663591, 0.49988104686119955, 94374000000
-0.02600133566305482, 0.163687843436485, 0.4999924916950432, 94379000000
-0.08811024226753902, 0.008669525691266408, 0.500143139143818, 94384000000
-0.06836597680465831, 0.09990189912457853, 0.4998193312025146, 94389000000
0.006764512698085767, 0.16930167470159868, 0.49957477931865574, 94394000000
-0.1135609259274878, -0.016217997671637435, 0.49967191769046704, 94399000000
-0.05438289722636527, 0.09468864651942833, 0.5001264947952808, 94404000000
-0.02343648902844857, 0.08376502529669727, 0.49992120222358666, 94409000000
-0.05352739128230773, 0.06854159315511649, 0.49979687493377584, 94414000000
0.013729288421609722, 0.1423955948831444, 0.4998018875597445, 94419000000
-0.11334750704451094, -0.05159328889260846, 0.4999964879473952, 94424000000
-0.09455768932672916, 0.07687074979841152, 0.5001085203057142, 94429000000
-0.007608092627045406, 0.16485526850063323, 0.4997142676544637, 94434000000
-0.10175062183395736, 0.035778324576996416, 0.5000525979457672, 94440000000
-0.015333621831042733, 0.15060926852523762, 0.4998567868143323, 94445000000
-0.11959756656165954, 0.0012149570402488798, 0.4996665582147692, 94450000000
-0.03426754163498384, 0.10676126734125058, 0.49988170425814743, 94455000000
0.03436334536268613, 0.1795048209683066, 0.4998961277739506, 94460000000
-0.1391454883633231, -0.028960906465723357, 0.4998713334638202, 94465000000
-0.027133754005840467, 0.15450159887512926, 0.4997351203438103, 94470000000
-0.11387195536616772, 0.011024554569296139, 0.499881241364866, 94475000000
-0.030035692092621257, 0.10380858902190584, 0.4998820726436397, 94480000000
-0.0031584424289378523, 0.18255640145637694, 0.4996799673617585, 94485000000
-0.11615313608066441, -0.018387335309861395, 0.4998999123340691, 94490000000
-0.06487937343627047, 0.07592806347930121, 0.5001292367308638, 94495000000
-0.06515653061376975, 0.08060092756571294, 0.49983277676975557, 94500000000
-0.10327116747890189, 0.1162053435764965, 0.4999601892158198, 94505000000
-0.026491890561749293, 0.15053902641573286, 0.4999859441758782, 94510000000
-0.10381575317039934, -0.05617086092481422, 0.4997288578092246, 94515000000
-0.0805857278003425, 0.12172834607217023, 0.4999318018743467, 94520000000
-0.03420492568016491, 0.1894940483797365, 0.4996512247839327, 94525000000
-0.11887429183947712, -0.0022164173012004743, 0.4998348621452394, 94530000000
-0.022632515523790715, 0.17350060163491599, 0.4998470499792917, 94535000000
-0.10385336380466795, -0.022582026581867195, 0.49995755276019704, 94540000000
-0.06451333673950285, 0.09113016627110403, 0.4996029042678654, 94545000000
0.013538701976481202, 0.13878165139602985, 0.4999674209959627, 94550000000
-0.1378568359660876, 0.006342389498454511, 0.49992224990152806, 94555000000
-0.0467213576438954, 0.09769781490310218, 0.49991813617742004, 94560000000
-0.058907536683480005, 0.08273238730510298, 0.4996694619576858, 94565000000
-0.06514247364471515, 0.03957423148057852, 0.5000227285625508, 94570000000
-0.011347108016448197, 0.17144060020047472, 0.4996899443902171, 94575000000
-0.10500522936586142, -0.022293134127986957, 0.4998705175258173, 94580000000
-0.05307303639539053, 0.11084023000358444, 0.4998649979527821, 94585000000
0.017508516185503406, 0.16587644871459353, 0.49980450429655104, 94590000000
-0.1078146652281541, -0.004133782155285166, 0.500107563078072, 94595000000
-0.03643153403866428, 0.18729772536862488, 0.499972621281825, 94600000000
-0.08445406904567573, 0.02012052510144143, 0.49975927221660665, 94605000000
-0.032205229323922085, 0.06661811454865366, 0.4999627416053917, 94610000000
-0.024841345173631936, 0.16514308517129042, 0.5001887974857382, 94615000000
-0.16018691120933123, -0.08618707270543328, 0.4997700042359812, 94620000000
-0.050445071384015126, 0.0950248476311969, 0.49972311704886063, 94625000000
-0.07137582205378841, 0.07193475194887823, 0.4998578934472153, 94630000000
-0.036868954243619405, 0.07543556511405487, 0.5000899298868388, 94635000000
0.029338327621198885, 0.20844815636213643, 0.4996303213014107, 94640000000
-0.09469189079470089, -0.03281170042504018, 0.500032663400729, 94645000000
-0.04900693745066529, 0.0693212742221551, 0.5001456189174046, 94650000000
-0.01623578401517925, 0.16711239783136214, 0.5000249013047943, 94655000000
-0.08894021312563952, 0.003907640819898276, 0.4997715933680013, 94660000000
0.0057154710303535874, 0.16713643769795164, 0.4998215174449724, 94665000000
-0.09720510369456051, 0.004530267953195584, 0.4996897440642183, 94670000000
-0.07745292860715093, 0.04051415974539882, 0.49968003585517823, 94675000000
-0.025219918347886897, 0.14749199365485627, 0.49985758471940184, 94680000000
-0.13596685773036277, -0.0441301990955738, 0.4997212341564013, 94685000000
-0.06335287078015944, 0.06165271227867247, 0.4998174097380705, 94690000000
-0.04142470502749467, 0.08733163169342932, 0.4997653917049592, 94695000000
-0.09358764880460316, 0.06558552456728343, 0.4997044225808283, 94700000000
-0.004980981429523142, 0.14575156814392903, 0.49992541232096516, 94705000000
-0.1191098283911197, -0.04164364002877216, 0.4995250278435332, 94710000000
-0.09672060543314884, 0.10715895246749729, 0.5001082946279913, 94715000000
0.026765136313835352, 0.20093154992937012, 0.4995420068115307, 94720000000
-0.09499095159571726, -0.033429876554249054, 0.4997996688980058, 94725000000
-0.025300436844129328, 0.14480580582292496, 0.49975900135864915, 94730000000
-0.11950413951895716, 0.0020849160541282956, 0.49976780764656753, 94735000000
-0.036714715156939796, 0.08618906926172747, 0.5001304255636102, 94740000000
0.007410397410239687, 0.18088638783052913, 0.5000657830524733, 94745000000
-0.11196788202933174, -0.02323361716226451, 0.49998537034221796, 94750000000
-0.0337748631999379, 0.16519125379765007, 0.5003636094934132, 94755000000
-0.023200110958665355, 0.09537787301118905, 0.4995964747741673, 94760000000
-0.1224730450909213, 0.0004794744411495966, 0.4998547756162525, 94765000000
-0.06715411126947066, 0.08256361747923938, 0.4999903076331689, 94770000000
-0.009184956561357316, 0.16050146452543942, 0.4999573499958505, 94775000000
-0.09258629797200438, -0.0214697388445166, 0.49965000985988406, 94780000000
-0.04727668953660622, 0.09648261474927784, 0.5000137676891165, 94785000000
-0.015669509776929207, 0.16748853512463635, 0.4997158834836028, 94790000000
-0.12009797596980334, -0.0007343011068672699, 0.49982374992874223, 94795000000
-0.0019201901219235932, 0.18788383884973375, 0.4999873108473907, 94800000000
-0.0767785959122444, -0.02062520665973591, 0.49994732528442964, 94805000000
-0.06246808220714607, 0.07718595285164434, 0.5002265924377961, 94810000000
-0.018946157167177995, 0.17693085137288803, 0.5001918662519793, 94815000000
-0.0584512794021545, 0.03486680738753677, 0.49998742809461527, 94820000000
-0.11232132813023878, -0.03023320422315504, 0.4998582156765545, 94825000000
-0.07270392279282747, 0.09053983113549371, 0.49982393962203314, 94830000000
-0.07221127710203296, 0.09578752013255226, 0.49975793055155904, 94835000000
-0.08761832882654708, 0.09237097199993514, 0.49975389887009164, 94840000000
0.004594486341585378, 0.1591345617181005, 0.5000108420895034, 94845000000
-0.14402906655894954, -0.030940474686975982, 0.499901793870053, 94850000000
-0.04488476167668742, 0.10092123779683501, 0.4999537321332367, 94855000000
-0.03851933019217243, 0.10086366006980567, 0.5004089553255628, 94860000000
-0.034814044684524634, 0.04641362015900303, 0.49969053875251, 94865000000
-0.05138296077141639, 0.08080610350653211, 0.49980437169956404, 94870000000
-0.021378083251004876, 0.07801137253995166, 0.49952611090039, 94875000000
-0.0628272739275274, 0.07982298648003336, 0.4999035848032482, 94880000000
-0.0013531870356057406, 0.15753634734102567, 0.49983507913397834, 94885000000
-0.1121055169440767, -0.015399306085301784, 0.49989349150994594, 94890000000
-0.06513586759205417, 0.08901423892820674, 0.49980563255636484, 94895000000
-0.06286822394197786, 0.05225218607457109, 0.49954733123283296, 94900000000
-0.006460864864885021, 0.08417055584429133, 0.5003634641096161, 94905000000
0.01590905880046773, 0.19421397172449634, 0.5002672445066572, 94910000000
-0.1252091332227823, -0.023627316238177144, 0.500164188500928, 94915000000
-0.056655416483069695, 0.0748180429807631, 0.5000369587420644, 94920000000
-0.02309808168998748, 0.15931798507982048, 0.4997687450312254, 94925000000
-0.1169592112490884, -0.05001499646932614, 0.500007234715757, 94930000000
-0.025130228162551983, 0.15375922465021835, 0.5001178604152348, 94935000000
-0.09064679957584512, 0.00985615267027744, 0.4994774852768063, 94940000000
-0.0342356577439827, 0.10256193600223092, 0.4994344066476361, 94945000000
0.025518319409417903, 0.19767496300246995, 0.4997541513380924, 94950000000
-0.12782793846544543, 0.0128579392666632, 0.4999645317803095, 94955000000
-0.022777092665607013, 0.12007906426631057, 0.5000207660363176, 94960000000
-0.04263131536315584, 0.06836856052349938, 0.4997236482005637, 94965000000
-0.033085247873638486, 0.06984468426351143, 0.49981604464349155, 94970000000
0.006402153252976085, 0.14670714388632855, 0.49994514453112077, 94975000000
-0.1179744361458246, -0.052019348758696876, 0.4996433854086432, 94980000000
-0.05916023388381017, 0.08336473464865654, 0.500185723491782, 94985000000
0.00929371260324568, 0.13522074110180354, 0.4994100997461528, 94990000000
-0.0896713586875359, 0.022254000778836054, 0.4995592335485071, 94995000000
-0.028100522685245703, 0.15139059211129446, 0.5002041599894281, 95000000000
-0.11544630569386523, -0.004105287961023679, 0.49963270521010217, 95005000000
-0.06807841647524335, 0.0924193904322955, 0.49985804786959614, 95010000000
-0.012177700210484272, 0.1576621056702437, 0.49975321209238693, 95015000000
-0.08240346020708808, -0.027052322230944503, 0.4995656149697276, 95020000000
-0.05035302179231682, 0.09386224467016724, 0.4998225433749621, 95025000000
-0.02850503602724589, 0.12408530557119948, 0.49997605990765814, 95030000000
-0.08190548004189709, 0.08329557899578079, 0.49993755205872803, 95035000000
-0.009671050905741834, 0.18670477973386168, 0.49964909463973933, 95040000000
-0.11575626982374365, -0.022851328290842392, 0.5001292082077199, 95045000000
-0.053490124134863, 0.07634374783096927, 0.49984558515969, 95050000000
0.013502210942942489, 0.15923476922412733, 0.4994000276419327, 95055000000
-0.10111239903059986, 0.010526807051954842, 0.4998725614061166, 95060000000
-0.010989239518868862, 0.18704999059790228, 0.4997710927948494, 95065000000
-0.10546525198922221, 0.027343349955151593, 0.4999193550506592, 95070000000
-0.03573844597061859, 0.0926586196009133, 0.4999426305167664, 95075000000
0.0016765372142231484, 0.17920285182253934, 0.4997785140566808, 95080000000
-0.09873237995519837, 0.009114734455524017, 0.4999866564833601, 95085000000
-0.0398942189231455, 0.10755415925358344, 0.49993372202320774, 95090000000
-0.04831091891105464, 0.0925849019986584, 0.4995321298222963, 95095000000
-0.04449429621823947, 0.0550892443793818, 0.4998024147730594, 95100000000
-0.004790473543728531, 0.17879565662586072, 0.4998254067645904, 95105000000
-0.11525280066733058, -0.03253777906906035, 0.4999185341689362, 95110000000
-0.029111629218141123, 0.08777086002838233, 0.4999542516044787, 95115000000
-0.008667654055796531, 0.15999780181523673, 0.5002873822231106, 95120000000
-0.09129771419151558, -0.0017432997808796528, 0.49976033336342707, 95125000000
-0.1016872223741947, 0.06041608173532975, 0.4998549474993562, 95130000000
-0.03638044809172698, 0.14391301779427995, 0.4999209659680363, 95135000000
-0.11589586486063039, -0.008137367639254189, 0.49949874747593653, 95140000000
-0.06641027193878751, 0.072395451960421, 0.4995151185215223, 95145000000
0.014061825647608224, 0.14144687220793667, 0.5000638578683806, 95150000000
-0.12123509197683448, -1.1498057004007828e-05, 0.5001842682875326, 95155000000
-0.07535731331122042, 0.0765420650503363, 0.500320143516481, 95160000000
-0.0624395758431877, 0.0881699442212266, 0.499894847010662, 95165000000
-0.10473734271336262, 0.08092509922344107, 0.49960568354596574, 95170000000
-0.009319806481773014, 0.16787160597370987, 0.4998920619232962, 95175000000
-0.12101575769372497, -0.016395100779984257, 0.5001321232052058, 95180000000
-0.06566562871616949, 0.09900672453847449, 0.4998786970916371, 95185000000
-0.005867313389930113, 0.1758375616539996, 0.49973288266311433, 95190000000
-0.13330160495989565, -0.016610678920604357, 0.4996622900480493, 95195000000
-0.008089621730298462, 0.17070607792483067, 0.49984548908443815, 95200000000
-0.10147037571927484, 0.007176149678017144, 0.4995248215485615, 95205000000
-0.043403338970679425, 0.08923342251695258, 0.4996837514114684, 95210000000
-0.011201828364963027, 0.21502910916085488, 0.49989677373515745, 95215000000
-0.09694011832250146, -0.014562950385893104, 0.49976113761500285, 95220000000
-0.03599823011726826, 0.11518763172573113, 0.4999065894920724, 95225000000
-0.03902110613074987, 0.10689396594755385, 0.4994180760409081, 95230000000
-0.08290046509848295, 0.08736667164972367, 0.4997852582180315, 95235000000
0.00768600904826466, 0.15556045407369576, 0.4997455128506979, 95240000000
-0.1206275369271095, -0.02362721879681283, 0.5001978833957221, 95245000000
-0.07399706314268392, 0.11210733064969654, 0.5000876594169632, 95250000000
-0.011681418234819135, 0.15274186047876206, 0.499792712527149, 95255000000
-0.12453027570713689, 0.010515797369316623, 0.49996789557535026, 95260000000
-0.013555229152348483, 0.18519412198229251, 0.5001656983766931, 95265000000
-0.11655797109435742, -0.004019237763306541, 0.49963987203645377, 95270000000
-0.027599093046909242, 0.07337965848558256, 0.5002193818394983, 95275000000
0.02619568391873018, 0.19966799059321833, 0.4995072710541677, 95280000000
-0.09893011711793619, -0.0007480786518091419, 0.49985498730342953, 95285000000
-0.014942286180369461, 0.07960525485422182, 0.49998086016532234, 95290000000
0.00391561446394148, 0.16980761408257017, 0.49948727863941483, 95295000000
-0.09072583070174171, 0.005640842148898742, 0.4999379278160553, 95300000000
-0.050747870794372076, 0.09427174950445104, 0.5000442800298501, 95305000000
0.017141702989574428, 0.14196662248471267, 0.49980896109802914, 95310000000
-0.13281388320802953, -0.012661426492097881, 0.5000414391513642, 95315000000
-0.057164439032411286, 0.09994744208087869, 0.4997445380404177, 95320000000
0.018574946834292293, 0.18382231508185598, 0.499838122076501, 95325000000
-0.08553090105500832, 0.02290595135596786, 0.49998917066337767, 95331000000
-0.0212451178948165, 0.1802557271943677, 0.49976167501879165, 95336000000
-0.09682374720041112, 0.0031131497661852463, 0.500104759532456, 95341000000
-0.05382129992405141, 0.06423277852442617, 0.5000154519994278, 95346000000
0.0008506508452836496, 0.18708712893599042, 0.5000062380107213, 95351000000
-0.10739379664535774, 0.020040873614060147, 0.4995918557295769, 95356000000
-0.010548896316236187, 0.20496352811545648, 0.4998457339034082, 95361000000
-0.12456842977113226, -0.004097643732259773, 0.4994655283610775, 95366000000
-0.06910873978050541, 0.07847800444217164, 0.49988904249327937, 95371000000
8.870257918571108e-05, 0.164278022138894, 0.4998561149839412, 95376000000
-0.10697745339499565, -0.027113072622673075, 0.49993181764303124, 95381000000
-0.007467533225694014, 0.16277031269199382, 0.5002363545276697, 95386000000
-0.07987059276448448, 0.013248902392765521, 0.4998639232626902, 95391000000
-0.06842255317764327, 0.08695677147973291, 0.49978928923981786, 95396000000
-0.017287380473089003, 0.19057407507221544, 0.5001707259881634, 95401000000
-0.08035051444147767, -0.04025710759299404, 0.49999796634665006, 95406000000
-0.08331188321603775, 0.0811766403763199, 0.49995239243133094, 95411000000
-0.021080831380254045, 0.19517243573757, 0.49951976895842, 95416000000
-0.08791541151465136, -0.021237860854968333, 0.4997860938677029, 95421000000
0.02514330745600056, 0.16911753239502558, 0.4994986266012445, 95426000000
-0.0854554824245404, 0.014595451578700586, 0.49984527781566473, 95431000000
-0.04657547219118391, 0.06886002226183924, 0.49974340226084674, 95436000000
-0.007330453908676033, 0.18519488050955563, 0.49966605743162995, 95441000000
-0.09452857651844614, -0.016699205315880872, 0.49987670449847094, 95446000000
-0.0468468083073923, 0.08713758762431932, 0.5002017800099359, 95451000000
-0.07334030679216925, 0.07377554443518197, 0.5000049964193048, 95456000000
-0.08710273354257234, 0.1011880867105716, 0.5000461720574263, 95461000000
0.0022993697685579646, 0.19599243513224682, 0.4998035980448437, 95466000000
