acc_x, acc_y, angular_z, stamp, 
-0.042834845314041144, 0.01892430359714113, -5.234468178965403e-05, 128078000000
-0.09715029078713319, 0.005031944523028871, -9.252404883523974e-05, 128083000000
-0.05934359339520115, 0.024466454171517917, -0.00014897503686422, 128088000000
-0.04013734755022866, 0.018988746418936157, -0.00012025634335835132, 128093000000
-0.032299923717661425, 0.030800799077774253, 0.00020871537635391437, 128098000000
-0.05154402544746631, 0.0038155853857711128, 0.00012052715282224007, 128105000000
-0.07318410541562463, -0.0162365471716871, -9.994872773713914e-05, 128110000000
-0.055393464917925114, 0.012487554743963434, 6.820075515977677e-05, 128118000000
-0.06878367187449677, -0.010836801737797106, -0.000214156947657947, 128123000000
-0.071306129427346, -0.006833364772625954, -0.00015158198105336967, 128128000000
-0.048465554994357826, -0.003427168746438837, 3.3357357483126135e-05, 128133000000
-0.053726733671716646, 0.018585577143919244, -8.162336120340859e-05, 128138000000
-0.07382768877967931, 0.02444123188470101, 0.0001948167309635649, 128143000000
-0.07000161691086175, -0.028884549893760193, -5.883057034020052e-05, 128148000000
-0.06651946034765374, -0.01304197185626206, 8.271047970616868e-06, 128153000000
-0.049107467196676705, 0.021371502449280405, -0.00024279417451623488, 128158000000
-0.035973433053055344, -0.0199903523809459, 5.555145298122651e-05, 128163000000
-0.06007119947726619, -0.015862402458764198, -2.0366615761797218e-05, 128168000000
-0.05193259469710559, 0.005963925195601766, -0.00013147732652121728, 128173000000
-0.06912330112118464, 0.010568288609588482, -0.00012964611931928918, 128178000000
-0.07566021868503062, 0.02196534225646396, -0.0004040183960779571, 128183000000
-0.07500449052748202, -0.01373929397040043, 0.00026441788278088753, 128188000000
-0.02883036147913585, -0.001333617789999754, 0.00019219948853925502, 128193000000
-0.07785689339246997, -0.007204072186719085, -3.749786583880894e-05, 128198000000
-0.057954132152380385, 0.019034285363486163, 2.203802096577747e-05, 128203000000
-0.06839559453591348, -0.014352122173487705, -0.000136763027503333, 128208000000
-0.08970384668808712, -0.0011023822629658998, 3.366516093301023e-05, 128213000000
-0.0468661426643414, 0.002704445114646679, -0.00014648470814957498, 128218000000
-0.05016571210978101, -0.013630162151851312, -0.0001881064510608434, 128223000000
-0.02445241088625387, 0.023031718596444227, 9.022845546941715e-05, 128228000000
-0.06571203195079203, 0.014539053079994447, 0.00018058467638244297, 128233000000
-0.05294988109315177, 0.00980346807932133, -0.00016196101267009015, 128238000000
-0.07260391183947108, 0.014329116629375457, 1.1880289816079493e-06, 128243000000
-0.0459051648412103, 0.004800415256706636, 3.5111796505365214e-05, 128248000000
-0.06651089306940926, 0.017717333933944375, 4.006212811314107e-05, 128253000000
-0.08371457729615317, -0.0031247415458271876, 9.623317500305767e-05, 128258000000
-0.04126620023844488, 0.03662449790924998, 0.0002972824917039152, 128263000000
-0.05323944043279348, -0.007146489691885431, -7.043355592007197e-05, 128268000000
-0.025920132725425864, 0.03533971810412569, -8.726252779928161e-05, 128273000000
-0.07092697123829951, -0.010929205856874558, -0.0002734189285872324, 128278000000
-0.09028085477626573, -0.021999104108681868, -0.000236660724270512, 128283000000
-0.05930769293585224, -0.0006349352845918704, 0.00020077277927820454, 128288000000
-0.04776182809257595, -0.0007068398822398833, 0.0002754039823585517, 128293000000
-0.05275146336235559, -0.02645488523612848, 0.0002728909197079427, 128299000000
-0.05550057011543136, 0.01025352388312036, 0.00012930113255549969, 128306000000
-0.055111350664727436, 0.04623563518251517, -9.588429788783525e-05, 128311000000
-0.06701955760177288, -0.010446120043114284, 6.310548419865654e-05, 128316000000
5.553974348789813, -0.01647520893968401, 0.007504902528832212, 128321000000
-0.2852907950529486, -0.03337800794319272, 0.01901050391376769, 128326000000
-0.01833685633379851, 0.011678074692636979, 0.040086059811472036, 128332000000
-0.26984724550573214, 0.03916292747701931, 0.053845906099798335, 128337000000
-0.0729000302549083, 0.008142303240185162, 0.07095487946523708, 128342000000
0.019619780698153753, -0.06566181575364148, 0.09671458200178196, 128350000000
3.227277892099154, 0.12963674394452404, 0.12985432946332354, 128355000000
-0.1354611124971377, 0.033842519573449366, 0.1707987605237348, 128360000000
0.03570315455328041, -0.13529421027383862, 0.21675576299204552, 128365000000
-0.17450968556433302, 0.17766785291003911, 0.264182175026222, 128370000000
-0.04814233452051852, -0.017334405862485767, 0.30937568999940795, 128375000000
-0.03414127402303732, -0.02934570491736762, 0.35028430375709857, 128380000000
2.7765644598242343, 0.01178018498281535, 0.39645603712269173, 128385000000
-0.004449452679906377, 0.04521690950442015, 0.44384555904033274, 128390000000
-0.07121454107915721, 0.03627650703122409, 0.4915174937983477, 128396000000
-0.08539683381601532, 0.0054407298690783215, 0.5359977860937666, 128401000000
-0.06422068209789426, 0.03917231894357076, 0.574667364474198, 128406000000
-0.059177588148191754, 0.020144907717661625, 0.606190922027086, 128411000000
-0.05375330184396289, 0.03534499830111318, 0.6278320138182621, 128416000000
3.471578368015031, 0.028190788112157236, 0.6503992158041356, 128421000000
-0.14034008613714058, 0.0745869666931414, 0.6789685027544995, 128426000000
-0.05831540922725906, 0.06602437598551697, 0.7078345766236093, 128431000000
-0.06585693161447324, 0.05791640889047925, 0.7347385382238546, 128436000000
-0.03780029468679259, 0.07314059293542698, 0.7579632867022587, 128441000000
-0.06058610538984464, 0.05043714455830206, 0.7766462016245476, 128446000000
-0.06401094789099898, 0.059376820947100985, 0.7902674792939757, 128451000000
3.4463371913970655, 0.03927714367595554, 0.8123492259763068, 128456000000
-0.1263604948932857, 0.049809220736603106, 0.8485663393391507, 128461000000
-0.11632449115998296, 0.10102711279386599, 0.8749984951071708, 128466000000
-0.07351568242988216, 0.08362558220930802, 0.9156922676327793, 128471000000
-0.05230353559084398, 0.10746335823043228, 0.9416514209048954, 128476000000
-0.08436727794180834, 0.07892242714433481, 0.9704431393097501, 128481000000
-0.03974360647716056, 0.08381712553421734, 0.9936907992916266, 128486000000
0.8424185306127396, 0.09649182722971819, 1.015679548290166, 128491000000
-0.07151290238246519, 0.12342724399002475, 1.0336693441659937, 128496000000
-0.03980012024819041, 0.08932419356153323, 1.0469005649611676, 128501000000
-0.025240403736676156, 0.10891107222913451, 1.0541081876109204, 128506000000
-0.06939783248273394, 0.10349566801306552, 1.0566523187489258, 128511000000
-0.05346483745681844, 0.13678455644159096, 1.0534511719151358, 128516000000
-0.060729376158379075, 0.10216313776553199, 1.0417112937308832, 128522000000
-0.05236033496406345, 0.09231668895818283, 1.0309750328000835, 128527000000
-0.08255503343824618, 0.1208498058611316, 1.0278133219399008, 128532000000
-0.051364691958074096, 0.0866541044362122, 0.9977508090936994, 128537000000
-0.05833523367876563, 0.10831994145885983, 0.9803906473722565, 128542000000
-0.018831352735428894, 0.10235854617544962, 0.9606734792763056, 128547000000
-0.05821832271754052, 0.1108579750431648, 0.9569955430395503, 128552000000
-0.01067777430290573, 0.11180515045840887, 0.938049494783124, 128557000000
-0.03609932056350508, 0.09700503797605646, 0.9295271971747773, 128562000000
-0.038917172184185694, 0.0873331949266178, 0.9205393864765881, 128567000000
-0.03792980204243408, 0.08013363545196796, 0.918541882112974, 128572000000
-0.03985049564325147, 0.10142343659360087, 0.9204503499480987, 128577000000
-0.042227552111717186, 0.10298531413560211, 0.9256006174129385, 128582000000
-0.08272497297728815, 0.09539745077357278, 0.9316712250510326, 128587000000
-0.08517619320474762, 0.10424534925096166, 0.9404168048279938, 128592000000
-0.048836106178018375, 0.0838938232906219, 0.9500007701386436, 128597000000
-0.06461434151911113, 0.09843786783044582, 0.9609536375417139, 128602000000
-0.030598927105086625, 0.11825115585803342, 0.9728409002022742, 128607000000
-0.06164108533696621, 0.09487269221931204, 0.9806680309561434, 128612000000
-0.04027549532136396, 0.08978149083269013, 0.9884562635851859, 128617000000
-0.05310567196410568, 0.11089927409511248, 0.9943533956636839, 128622000000
-0.03274249802945276, 0.09442265038917914, 0.9975306007939793, 128627000000
-0.05206784928865016, 0.1144497125638987, 0.9980821747001721, 128632000000
-0.041736065271054223, 0.1125956577440389, 0.9964066626025457, 128637000000
-0.05333361483188048, 0.10788028891906598, 0.991099551272761, 128642000000
-0.0605517866052062, 0.08393731414995732, 0.9847449883050078, 128647000000
-0.026608218659830585, 0.0638304339671711, 0.9780594107074908, 128652000000
-0.04345372872531362, 0.03215637343091533, 0.9720937972401734, 128657000000
-0.03057321552662706, 0.07805213576148504, 0.9642278702196375, 128662000000
-0.05907825286806101, 0.06673862599268146, 0.9573606568136062, 128667000000
-0.03232990482492662, 0.08531243511692109, 0.9511294969870233, 128672000000
-0.03174551611848331, 0.09856661908038933, 0.9461013941615201, 128677000000
-0.04754929341683932, 0.08009184653928682, 0.9424080564840098, 128682000000
-0.07647570983791678, 0.06221190668592749, 0.9399812078892967, 128687000000
-0.04369993240375197, 0.08331450976392805, 0.9391071833968294, 128692000000
-0.07300316297639942, 0.0529791132965308, 0.9393812024283528, 128697000000
-0.04124671220201811, 0.09058918707451755, 0.9394523546704797, 128702000000
-0.030333108714551683, 0.07188212676711125, 0.9411552058354341, 128707000000
-0.03812707032285511, 0.057607752994526716, 0.9435386863889588, 128712000000
-0.06290283678505088, 0.06901776356363092, 0.946487266681753, 128717000000
-0.032700644189225574, 0.06861971728041082, 0.9481773680538698, 128722000000
-0.05249321648467724, 0.06645561101898936, 0.9510358237959283, 128727000000
-0.048570468835593975, 0.05942789910716309, 0.95335544702066, 128732000000
-0.06663604262898619, 0.10066051437271713, 0.9555559809538865, 128737000000
-0.0751920079476521, 0.10169647442605323, 0.957305509233917, 128742000000
-0.06697835985130873, 0.10572103584678808, 0.9586092421557937, 128747000000
-0.06830404717925247, 0.07253599063402381, 0.9594941777714204, 128752000000
-0.04932844993044497, 0.11325246917859294, 0.9598104415698608, 128757000000
-0.028577280926612946, 0.08285181388849726, 0.9591376765441297, 128762000000
-0.020222000847292393, 0.08683357998398866, 0.9588336893356962, 128767000000
-0.06503417461923126, 0.0869642823019322, 0.9573638144990521, 128772000000
-0.0607034651797047, 0.09446389405589842, 0.9559728808274905, 128777000000
-0.06982797284123615, 0.09256129239215424, 0.9544007358380905, 128782000000
0.026747695139217032, 0.1017337659445135, 0.9532384335627531, 128787000000
-0.15316398517378088, 0.09607334881370602, 0.9508421906465769, 128792000000
-0.025875553014915956, 0.06812215001912326, 0.9496231423738644, 128797000000
-0.07750980242813653, 0.11187743304101076, 0.9471458183224547, 128802000000
0.005481422979159684, 0.10960469384823585, 0.9446821831289721, 128807000000
-0.1772497933080243, 0.04682676526072862, 0.9425234466816946, 128812000000
-0.06938673837749257, 0.06125567573463271, 0.9402284198883372, 128817000000
0.03832067247797887, 0.09822874012546387, 0.9383156992942502, 128822000000
-0.16190217967730575, 0.01076367615574634, 0.9371717735986441, 128827000000
-0.03682483066616903, 0.07324549282149401, 0.9362938472814213, 128832000000
0.08835234425343078, 0.13611708379135057, 0.9358459778649337, 128837000000
-0.16769663517102745, 0.062494730585983066, 0.9358397214477515, 128842000000
0.0721006448365385, 0.1558504028538568, 0.9369576210156564, 128847000000
-0.15183255969222045, 0.04629353539091838, 0.9381549681396133, 128853000000
0.07084211605332691, 0.16843280621736464, 0.9392881158192201, 128859000000
-0.05405183027283487, 0.07024019334437645, 0.9408617487303321, 128864000000
-0.1946590090871691, 0.04584189132360435, 0.9420082519207958, 128869000000
0.06337187973766668, 0.11737196607439876, 0.9436168927218185, 128874000000
-0.18836410987390947, 0.01794114430918372, 0.9446467397042485, 128880000000
0.07173294826333279, 0.17736808102408777, 0.9459816590999172, 128885000000
-0.06382533764730818, 0.055148232888899036, 0.9465260444958065, 128890000000
-0.1796480455788712, 0.004510595214693918, 0.9471254363063081, 128895000000
0.06543554832656329, 0.16261109662849385, 0.9457252854588926, 128900000000
-0.23742008274512105, -0.008919715208518132, 0.9445381817462628, 128905000000
0.08453361328819028, 0.17296016267770184, 0.9424562144503982, 128910000000
-0.05499926235053718, 0.09100712426381107, 0.939473717369705, 128916000000
-0.17773704254663097, -0.028911320468298564, 0.9368373258096809, 128921000000
0.0896102431986133, 0.20285770330313813, 0.934747096515728, 128926000000
-0.052139711473448994, 0.07683929642558705, 0.9318406881198645, 128931000000
-0.22725069086680258, -0.015802871449858886, 0.9303395252196598, 128936000000
0.12795202552326726, 0.17600012808601917, 0.928824167439314, 128941000000
-0.03399626164464983, 0.08156601480205249, 0.927423543506036, 128946000000
-0.2189249621354295, 0.03685799682682198, 0.9268781623158325, 128951000000
0.1603695344240915, 0.21174577938356332, 0.926970981952953, 128956000000
-0.03951816475924949, 0.0744860484277819, 0.9270300721908518, 128961000000
-0.26931693835100284, -0.02005443269397771, 0.9279957678259987, 128966000000
0.07969904307407606, 0.17334831098033088, 0.9295743268765558, 128971000000
-0.07348854288806152, 0.0834406966272537, 0.9304667907200542, 128976000000
-0.24034159943364933, -0.012102668622937775, 0.9321171671303805, 128981000000
0.14717525067727313, 0.18565825211442238, 0.9336484433057965, 128986000000
-0.0816925786955249, 0.0664299561174961, 0.9350451045958763, 128991000000
-0.24848909751664144, 0.007812474855780771, 0.9366738384561282, 128996000000
0.10179069399139393, 0.20679728599984032, 0.9365480962928169, 129001000000
-0.23294836812206374, -0.0056969797962806885, 0.9359625389876753, 129006000000
0.1570582594494117, 0.22392048774619652, 0.9351053408078706, 129011000000
-0.02741617773112088, 0.10596136904421692, 0.9335126337439287, 129016000000
-0.21744725570887802, -0.019664772204442543, 0.9311551270173895, 129021000000
0.110643759436194, 0.14866378486166096, 0.9286051616096885, 129026000000
-0.2774330374298643, 0.012341712176921343, 0.9267017226669385, 129031000000
0.0699452548188752, 0.15248905664980525, 0.9249225736033468, 129036000000
-0.053136837692197784, 0.09192645096469945, 0.9228555197819325, 129041000000
-0.22840906293206167, 0.010652144424430611, 0.9211799777048363, 129046000000
0.1087059218511253, 0.1675563071506232, 0.9198807421530006, 129051000000
-0.20808297093869085, 0.053636953972618084, 0.919229972777242, 129056000000
-0.040009564539826487, 0.09545558124296308, 0.9189256246350136, 129061000000
0.19698900975158815, 0.17008374733345938, 0.9188552678712277, 129066000000
-0.20294888863903496, 0.05146503416545744, 0.9198871907033627, 129071000000
0.1139896004721333, 0.1436428453226796, 0.9205878209987995, 129076000000
-0.2272974175605899, 0.03217109884275558, 0.9218749542130192, 129081000000
-0.037353389803199896, 0.10899868010254325, 0.9231343075157026, 129086000000
-0.017626877325626067, 0.10796129397313142, 0.9240651994449365, 129091000000
-0.07843549283446641, 0.11219536700881932, 0.9253967332877473, 129096000000
0.0825077995442062, 0.13278308735001365, 0.9266073901616292, 129101000000
-0.20086366552322163, 0.0361335119564511, 0.9266145563993836, 129106000000
-0.033130996278778205, 0.06903428974751896, 0.9257331824039877, 129111000000
-0.025233479208922688, 0.08620985217819523, 0.9246929440289523, 129116000000
0.09736559102978534, 0.16111808047186574, 0.922866104810358, 129121000000
-0.19561114614182412, 0.07991900245239193, 0.9213243967078745, 129126000000
-0.04599542095765421, 0.0992328987736866, 0.9192234710450017, 129131000000
-0.040556887678331044, 0.08118742237792703, 0.9173645810508101, 129136000000
-0.05563542959571004, 0.10582066926827434, 0.9155745912043423, 129141000000
-0.07711910191419695, 0.07046266916951954, 0.9140870528622701, 129146000000
-0.03587416417892687, 0.061433806965131614, 0.9130414634848174, 129151000000
-0.045568702819355565, 0.08992674424429864, 0.912258024944275, 129156000000
-0.05829162554313216, 0.06732148736022694, 0.9116846502451528, 129161000000
-0.060304364467455934, 0.0770781275407148, 0.911055132952957, 129166000000
-0.05739367163725377, 0.08899946763233209, 0.9112811552138299, 129171000000
-0.03531939803532795, 0.06743675871844994, 0.9123610299433981, 129176000000
-0.015266416672527747, 0.09597115094844803, 0.9135822483907798, 129181000000
-0.05985160649430791, 0.0755228596617055, 0.9137591540795084, 129186000000
-0.046455768271490214, 0.08122456428261327, 0.9151074888339116, 129191000000
-0.07743875353285143, 0.104549993632075, 0.9162569614511035, 129196000000
-0.029669743764598293, 0.10701975840722157, 0.9170291843530588, 129201000000
-0.05376301706036371, 0.10451782095043395, 0.9175917349439009, 129206000000
-0.057117689983770065, 0.06340453195618992, 0.9166641496335429, 129211000000
-0.03842157664546318, 0.09185183968956229, 0.9156063311935263, 129216000000
-0.0557491922167154, 0.11162531045320634, 0.9148326010587872, 129221000000
-0.022494665571341853, 0.09393782360859593, 0.9126243073824534, 129226000000
-0.057322330987296125, 0.09741454638214873, 0.911156914067482, 129231000000
-0.03771611123906964, 0.08126157555692012, 0.9097183762555913, 129236000000
-0.05066061857309814, 0.09274070278294949, 0.9077957218566386, 129241000000
-0.03737969780790079, 0.10368916963935122, 0.9058177205549012, 129246000000
-0.03603036168596675, 0.09661842821334586, 0.9045775703845342, 129251000000
-0.04996081580025771, 0.10954113883369487, 0.9041797369146829, 129256000000
-0.07674762083905036, 0.1029546860023093, 0.9033928009229023, 129261000000
-0.06449765330785982, 0.08615502491004062, 0.9034663806052137, 129266000000
-0.0360222243746629, 0.07082681002372437, 0.903809976685138, 129271000000
-0.08255441556950932, 0.08083431919844902, 0.9040001121286056, 129276000000
-0.0330383918257601, 0.11202629743404195, 0.9045002342582045, 129281000000
-0.0749917934181323, 0.12517766242928277, 0.9053694744154972, 129286000000
-0.050685738356362794, 0.12473833795588307, 0.9066853817097412, 129291000000
-0.04128142388516737, 0.07916908761508927, 0.9076654021420597, 129296000000
-0.06708888326777794, 0.08748101494737051, 0.9085548272645224, 129301000000
-0.04499803573795003, 0.09319911162767054, 0.9093049487463426, 129306000000
-0.05304004882483241, 0.10183234557397351, 0.9087807234521993, 129311000000
-0.016612146127211323, 0.11189021031738514, 0.9079337322474417, 129316000000
-0.02510408717393363, 0.04982716912196294, 0.9066943510293758, 129321000000
-0.044150724246110405, 0.10472032483454052, 0.9053422960348473, 129326000000
-0.07174853211892764, 0.11095557903405236, 0.9038339245231506, 129331000000
-0.024702093504048266, 0.08596779211976295, 0.9017679753985113, 129336000000
-0.04602268287527124, 0.07499201297520085, 0.9002126532037825, 129341000000
-0.085453509072202, 0.08109478275579121, 0.8989351190295385, 129346000000
-0.040069661951941477, 0.10194040512994447, 0.897403928592998, 129351000000
-0.027290954334470752, 0.10128428059353668, 0.8964060839814494, 129356000000
-0.03462706273310774, 0.10457241404705862, 0.8957834110691564, 129361000000
-0.060377012260902974, 0.09690497653507503, 0.8954046059781863, 129366000000
-0.021233859869220984, 0.09716173057608973, 0.8960274958993113, 129371000000
-0.052338665946693744, 0.08962885784140551, 0.8963038973723507, 129376000000
-0.03183319213475956, 0.12179447091825803, 0.8971481931000913, 129381000000
-0.06912772107674464, 0.10100099541400066, 0.8978870106293847, 129386000000
-0.043321510511631196, 0.09953411106136421, 0.8988904986463861, 129392000000
-0.051159896537317236, 0.09308484729267023, 0.9001411931753904, 129398000000
-0.05182673994534215, 0.09981411837877563, 0.9011314079705152, 129403000000
-0.07848407239727809, 0.09327238118285555, 0.9015326290300425, 129408000000
-0.04898727108209943, 0.10890797997889753, 0.9008692199397769, 129413000000
-0.026143687129952103, 0.0956333058791608, 0.8998191538486315, 129418000000
-0.068905372764274, 0.11361747511052823, 0.8987549077709627, 129423000000
-0.07269479599050004, 0.09971663057470014, 0.8970845827809727, 129428000000
-0.04892148387606554, 0.1305546504622485, 0.8951161147467231, 129433000000
-0.05513107275050965, 0.12468150117278674, 0.8937986643638999, 129438000000
-0.018707034350276243, 0.10641562350463091, 0.8923148559692966, 129443000000
-0.06412101119276967, 0.10898082392933763, 0.8905865962806973, 129448000000
-0.0758775722052281, 0.08847554431879413, 0.8897671202857953, 129453000000
-0.04196512834316536, 0.09749845497321012, 0.8879226581204642, 129458000000
-0.02364103931730361, 0.07770101209170854, 0.8876927562466447, 129463000000
-0.04546870276127213, 0.0808845319160593, 0.8875956962272136, 129468000000
-0.04809138090758105, 0.1017707587573985, 0.8873856214826585, 129473000000
-0.058073511039583366, 0.10116997638956339, 0.8871405670160114, 129478000000
-0.06108143723510841, 0.08084103631222601, 0.8867852876596568, 129483000000
-0.046259007324797013, 0.11016422857246694, 0.8862700966636003, 129488000000
-0.0736031004359545, 0.10972712911530375, 0.8854729496786407, 129493000000
-0.07301190039499227, 0.10252924542437679, 0.885102009770749, 129498000000
-0.0015129878435701447, 0.09147792151208888, 0.8842035169213115, 129503000000
-0.04431505022763136, 0.08770127121396488, 0.8834314760707281, 129508000000
-0.056310843649053144, 0.08753137511250028, 0.8834407217523312, 129513000000
-0.06164634495990287, 0.10219111101111396, 0.8828950734295969, 129518000000
-0.041483811118576325, 0.08863479638335181, 0.8830223882731346, 129523000000
-0.07450242831884701, 0.08760922103607283, 0.8831461700074651, 129528000000
-0.062012555076323535, 0.09918610911515875, 0.8832110695811277, 129533000000
-0.026840484947881812, 0.140079462011381, 0.8829170313845808, 129538000000
-0.09864456046779832, 0.08817180592514576, 0.8834192490139331, 129543000000
-0.060756894980496065, 0.07755716271195937, 0.8838857406209694, 129548000000
0.11100911544959982, 0.18601234821252235, 0.8837931424717151, 129553000000
-0.16811702805932519, 0.02283700472968457, 0.884229912290425, 129558000000
-0.029559276999188266, 0.11767781435953914, 0.885032662184812, 129563000000
0.056941693454072684, 0.2045449841880884, 0.8850037495677899, 129568000000
-0.15436530338042756, 0.03056151875697383, 0.8852188511488802, 129573000000
-0.046869533652925316, 0.11519026896505112, 0.8848153972672748, 129578000000
-0.06023956308746614, 0.07638396448140436, 0.8839726154468189, 129583000000
-0.05215367629539945, 0.07307727512739147, 0.8828668849639881, 129589000000
0.039142123139837545, 0.15533989541352708, 0.8806256397029099, 129594000000
-0.17717300490560603, 0.016896616513439162, 0.8786690662014293, 129599000000
0.09610934878160104, 0.22425131838782061, 0.8770968124094718, 129604000000
-0.03972116686002181, 0.11096516737353526, 0.8755050243873052, 129609000000
-0.18416400569714825, 0.005593164067427403, 0.874345070174673, 129614000000
0.051136828741031086, 0.21077283032261615, 0.8731818014869495, 129619000000
-0.21328830609121857, -0.007896734150469738, 0.8724194021965461, 129624000000
-0.026323068143484424, 0.10843459813911452, 0.8722656144228655, 129629000000
0.05409709753128501, 0.2087623220685937, 0.8715176820844955, 129634000000
-0.22109858082575928, -0.026259987313915285, 0.8723828323979955, 129639000000
0.04907740505032797, 0.22864261968800587, 0.8725775874704061, 129644000000
-0.06001815056971688, 0.10053807786065609, 0.8729849033443211, 129649000000
-0.15575730795582265, 0.021472489061659453, 0.8740797523990124, 129654000000
0.039483759926957435, 0.22049590535461083, 0.8751408812559396, 129659000000
-0.19480526520084762, -0.009509277062114527, 0.8762760961383226, 129664000000
-0.0815545755674018, 0.12272256856389047, 0.8773205329413591, 129669000000
0.04636925725315545, 0.2106758211153771, 0.8778429975175528, 129674000000
-0.17443384729347852, -0.02915990050623554, 0.8786509040501745, 129679000000
0.06831386532617797, 0.2570352278222411, 0.8784319054949006, 129684000000
-0.04548310317033229, 0.0959202663984006, 0.8768515065146054, 129689000000
-0.1483551366828013, 0.006129776284998334, 0.8760100650393762, 129694000000
0.07159483662120293, 0.2309925028786641, 0.8740572050048134, 129699000000
-0.16302152893433267, -0.04709216330951775, 0.872109659819234, 129704000000
0.041333548344371585, 0.21870263689101363, 0.8702082042180951, 129709000000
-0.03937534541033849, 0.09825035011426399, 0.8686677572270423, 129714000000
-0.1649215895920525, -0.02826451519343611, 0.8672755135450385, 129719000000
0.05716553889396598, 0.23847449167240847, 0.865603606491355, 129724000000
-0.16765929684826858, -0.01104639331055024, 0.86477780621358, 129729000000
0.049359240914281705, 0.25581381240837114, 0.8642156839989563, 129734000000
-0.04121578508892176, 0.07980596968202969, 0.8637198890791425, 129739000000
-0.16437194815110964, -0.007656822208267487, 0.8640277317916287, 129744000000
0.06118352997518038, 0.20952895565984458, 0.8645632502678887, 129749000000
-0.0377695272116463, 0.10350591086445754, 0.8650673307619529, 129754000000
-0.18082885399343743, -0.05786123756917724, 0.8662396560199613, 129759000000
0.06002980385092788, 0.25243351635673994, 0.867466702176318, 129764000000
-0.0869832382849082, 0.10721536700319594, 0.8686108087662929, 129769000000
-0.15604378684439302, -0.04354325233538095, 0.869301924341021, 129774000000
0.06102287813174985, 0.23529098430402895, 0.8703066489191709, 129779000000
-0.13459473986954482, -0.03651386762877324, 0.8703528729459507, 129784000000
-0.01589505695118401, 0.20572123547675436, 0.870455753953938, 129789000000
-0.013857845388843382, 0.1240228233773204, 0.8691728494374863, 129794000000
-0.14105052785344988, 0.01748401826612444, 0.8673722826950258, 129799000000
0.03290723893158215, 0.21918171057192662, 0.8656076739738419, 129804000000
-0.1318012035951149, -0.021525676009528462, 0.8640403219182435, 129809000000
0.046563909974238475, 0.253362504224858, 0.8627008189817319, 129814000000
-0.11936954014238572, -0.005628065029710829, 0.8603316309308099, 129819000000
-0.06026349176855119, 0.13022475601650288, 0.8598607688767783, 129824000000
0.021120641551580076, 0.27126099587511543, 0.8580315746998927, 129829000000
-0.14880190870740256, -0.06785948308719614, 0.8574400636819883, 129834000000
-0.06775517837626123, 0.10897954441248464, 0.8568943001571038, 129839000000
-0.07533161783390804, 0.1338937643613599, 0.8566862280911277, 129844000000
-0.07657084449118415, 0.07984126557529136, 0.8573698693621056, 129849000000
0.013317299157682537, 0.20570822073753497, 0.8576984685209943, 129854000000
-0.1316865830299, -0.02878388767599101, 0.858822942468675, 129859000000
-0.04645001161646095, 0.12703820321459638, 0.8589350405496112, 129864000000
0.036298379809344465, 0.2624707139603886, 0.8600783775939999, 129869000000
-0.15738618592680417, -0.02548510484249141, 0.8613586660180341, 129874000000
-0.052333751066834897, 0.13127459303704841, 0.8623178131354142, 129879000000
-0.05624476436816595, 0.11906966293897009, 0.8629089600276164, 129884000000
-0.020685629805170955, 0.12227804535639528, 0.8622660548937925, 129889000000
-0.08558663170414646, 0.11200795870481696, 0.8614151279390416, 129894000000
-0.05537588177547334, 0.06820873676931351, 0.8601991530571581, 129899000000
-0.0684243576559242, 0.11731694639743429, 0.8592613038628935, 129904000000
-0.05180297935739718, 0.09688162590204061, 0.8576014310500393, 129909000000
-0.03926614468092781, 0.11170921317256795, 0.8563892973186555, 129914000000
-0.07312301672264634, 0.12181460040055887, 0.854627433662545, 129919000000
-0.0612275811505219, 0.08926692366669253, 0.8528002844766581, 129924000000
-0.03906548822545051, 0.1098004835279578, 0.8520267083661385, 129929000000
-0.07801656483772093, 0.10859547835668079, 0.8507322921668682, 129934000000
-0.036839174154806295, 0.1026621410593031, 0.8501041459898475, 129939000000
-0.05528229889609665, 0.13004480094226553, 0.8499914609581392, 129944000000
-0.04284018769051956, 0.09895488375930608, 0.8497982108415634, 129949000000
-0.05035691497958679, 0.11216594235221222, 0.8501978812900716, 129954000000
-0.03314446422990137, 0.14372249515671712, 0.8509982394268638, 129960000000
-0.023820063414358987, 0.11432127160152916, 0.8516357656162377, 129965000000
-0.03421547615122868, 0.14117338378375627, 0.8522954586587228, 129970000000
-0.02767144979905186, 0.12058235160740967, 0.8532589753951267, 129975000000
-0.06840590141247632, 0.1354301407370547, 0.854522615932127, 129980000000
-0.04950141240040872, 0.1131794470270284, 0.8547648181877828, 129985000000
-0.0499871295280155, 0.10548861046485411, 0.8543825540052008, 129990000000
-0.06312241721340968, 0.14639120740000391, 0.853837854196551, 129995000000
-0.08042438372177313, 0.11298299423223841, 0.8530248986029321, 130000000000
-0.05010302353485375, 0.10884714709873032, 0.8516646017160884, 130005000000
-0.006707735431006084, 0.13123871358735825, 0.8502527846735068, 130010000000
-0.04528098213952031, 0.12351437644268422, 0.8488943705410942, 130015000000
-0.017666996389841462, 0.11223628669370263, 0.8472826127198454, 130020000000
-0.05538414552714574, 0.09934024766266213, 0.8455108313076285, 130025000000
-0.0925083073880644, 0.11689352709723183, 0.8445503707377594, 130030000000
-0.06680513855897412, 0.12099704385734221, 0.8441877827154003, 130035000000
-0.09047060801880338, 0.1304496574978428, 0.8429892889601461, 130040000000
-0.045998483807521584, 0.09565812623996765, 0.8426430706450708, 130045000000
-0.06576506720884441, 0.10958164571474555, 0.8427871529106239, 130050000000
-0.0771340926172919, 0.11685728203054199, 0.8432405162617296, 130055000000
-0.05439685884723187, 0.1294352444854539, 0.8435801210147631, 130060000000
-0.016475436359231647, 0.11020701597018666, 0.8445519167388069, 130065000000
-0.06094140818469106, 0.13529837855593363, 0.8449501437324607, 130070000000
-0.06006812193384449, 0.10661527065089185, 0.8461219497848109, 130075000000
-0.03229754631922554, 0.13046337830688648, 0.8472591175524719, 130080000000
-0.06015384198181897, 0.11158617143317061, 0.8476852893062397, 130085000000
-0.08928886127132843, 0.12659927973395085, 0.8473294347693354, 130090000000
-0.034343671406286996, 0.1150680535297095, 0.8471080077530155, 130095000000
-0.06084680489329537, 0.14143218400526525, 0.8461034807134498, 130100000000
-0.04453136903713017, 0.08207448539642498, 0.8453467307312691, 130105000000
-0.07739197139480163, 0.12455157197966625, 0.843449111263502, 130110000000
-0.04870828581006699, 0.08292813467100171, 0.8419888138228686, 130115000000
-0.08593732206330112, 0.10917193938264805, 0.8407824394730352, 130120000000
-0.05266103318740733, 0.1387475935927282, 0.8387762514834847, 130125000000
-0.05363728163554552, 0.10789543487980283, 0.8380387569174058, 130130000000
-0.06698781180330066, 0.12913919567476104, 0.8369850685795165, 130135000000
-0.04326276254532818, 0.16346597585303568, 0.8362204060637537, 130140000000
-0.03856567598118919, 0.150980860114736, 0.835596259249242, 130145000000
-0.06428316212672974, 0.11449538562910849, 0.8356707164320667, 130150000000
-0.05966897478336311, 0.14192892479125138, 0.8359903923566617, 130155000000
-0.0780726592539642, 0.1466584041592429, 0.836243768700526, 130160000000
-0.10080852094592455, 0.11592263852939144, 0.8366979895609905, 130165000000
-0.021716360934232497, 0.09111320375836135, 0.8376816558762923, 130170000000
-0.03702239130701493, 0.13222297090438043, 0.838691794406861, 130175000000
0.04723963310599458, 0.2634975517224697, 0.8391838893613569, 130180000000
-0.1728821094794953, 0.00583845262119113, 0.8398440937211925, 130185000000
-0.03780913106226608, 0.1259453459214812, 0.8400203215808448, 130191000000
0.09395979165138771, 0.24482444243092683, 0.8399312478300016, 130196000000
-0.20226688258669834, 0.0357355758268643, 0.8393309012889515, 130201000000
-0.04525123946711694, 0.10954766850560278, 0.8386150398687994, 130206000000
0.06156590733205564, 0.24943539850031776, 0.8364942881860304, 130211000000
-0.19253091210042142, -0.009961335100719297, 0.8354932340194148, 130216000000
-0.055727480806088886, 0.1344054396960905, 0.8343434282269772, 130221000000
-0.06940248495604574, 0.11523516983263904, 0.832114999709095, 130226000000
-0.07258823242876793, 0.09899247716261812, 0.8310945953065845, 130231000000
0.06357589929421907, 0.2802280773310481, 0.8299071798985665, 130236000000
-0.20574575624755262, -0.0009675636905370792, 0.8290697773098964, 130241000000
-0.06671814040160975, 0.13425098045452538, 0.8289768341828277, 130246000000
0.082441617845579, 0.2485974567464286, 0.8281904711512069, 130251000000
-0.20232696628243904, 0.010913606765667185, 0.8287192034951308, 130256000000
-0.03274388228510473, 0.11542524531916454, 0.8293635902691058, 130261000000
0.058473815256758516, 0.22647440921956224, 0.8295801619201592, 130266000000
-0.23155648871458265, -0.020740640146664803, 0.8301356421172749, 130271000000
0.0686905278596009, 0.26237803926088077, 0.831582799586722, 130276000000
-0.03261285982143784, 0.15321024321766716, 0.8317043738648855, 130281000000
-0.19333634077668155, -0.010615588470941796, 0.8334584803965455, 130286000000
0.08161158260301174, 0.26871552193846704, 0.8333889356712886, 130291000000
-0.20726849065852757, -0.012841050517360916, 0.8336043298463787, 130296000000
-0.02896617541333217, 0.1473369816213299, 0.8331350304063323, 130301000000
0.09197177790812229, 0.2492684033189204, 0.8314552620466843, 130306000000
-0.22668395945569123, -0.011330835582976526, 0.8307415293289936, 130311000000
0.06918465690556981, 0.2644245087485534, 0.828949993107517, 130316000000
-0.09422133001977578, 0.12627834299608842, 0.8273663047781731, 130321000000
-0.14657445444268433, 0.03408880226030438, 0.8262095498533694, 130326000000
0.07044535600311623, 0.27324163857392975, 0.8245512073567679, 130331000000
-0.22980589701073745, -0.007404644466931121, 0.8238582390338616, 130336000000
0.07711367797047872, 0.28638291605282007, 0.8227093874509686, 130341000000
-0.20285724124207277, -0.053719721046685216, 0.8220064730802317, 130346000000
-0.07000161050695577, 0.11548440218802519, 0.8218067827324733, 130351000000
0.08907748102417001, 0.2638057514822336, 0.8214774014705286, 130356000000
-0.18814413341430142, -0.02600855715942685, 0.8223126012539924, 130361000000
0.08906963363357376, 0.3029730543507552, 0.822741376396955, 130366000000
-0.251243829715076, -0.0350494982234791, 0.8232439614752505, 130371000000
0.07439773110552869, 0.2874696443770758, 0.8241348151572888, 130376000000
-0.02462641638772553, 0.11685154236242953, 0.8249441291412305, 130381000000
-0.2119381299752557, -0.045752483071403366, 0.8258345172939461, 130386000000
0.11219686738439899, 0.26660065395590293, 0.8267106719996783, 130391000000
-0.20274331029852416, -0.007888957133968828, 0.8266307831548271, 130396000000
-0.05612868559487495, 0.08732073202479237, 0.8264631458895428, 130401000000
0.0777797392814407, 0.24958747119761013, 0.8251320710443569, 130406000000
-0.28189115257604874, -0.06379201805849087, 0.8241880316913134, 130411000000
-0.040098067057134784, 0.13586439670294392, 0.822726330670452, 130416000000
0.0698735023552983, 0.27608310242941675, 0.8213621157691211, 130421000000
-0.19287373533066088, -0.01782737052220552, 0.8196989494771054, 130426000000
-0.013582963344458743, 0.16863706857647293, 0.8184577570754749, 130431000000
0.13181162164403504, 0.293353962670263, 0.8172613512693784, 130436000000
-0.21445595400983303, -0.02449813529081664, 0.8162671869907245, 130441000000
-0.053832498510044804, 0.16384923168775462, 0.8158961128310734, 130446000000
0.11022746136151212, 0.2576002027591641, 0.8146501963637012, 130451000000
-0.1868213237738212, -0.03704904239030754, 0.8151142105433486, 130456000000
-0.02715946884868067, 0.17101499816828333, 0.8157153888756027, 130461000000
-0.12383514625681509, 0.3879062989062981, 0.8168068144133869, 130466000000
-0.10246237376367112, -0.08090861623099882, 0.8196873334254363, 130471000000
0.0005845146752653779, 0.04897354017616393, 0.8225663427413009, 130476000000
-0.30748212173011624, 0.24387961687940987, 0.8258773266483245, 130481000000
-0.10755109638937457, 0.30582337881872407, 0.8309441111694127, 130486000000
0.04925657339658154, -0.0956407555288279, 0.8365538232376241, 130491000000
-0.13407890156181393, 0.16764674887045686, 0.840499338574415, 130496000000
-0.20090565770535465, 0.2039899323154318, 0.8447530503744857, 130501000000
-0.1202029228984102, 0.12380833354624432, 0.8484733048928971, 130506000000
-0.0759128518770029, 0.14860253337064772, 0.8523428862566408, 130511000000
0.10279330397161475, 0.07381490649956178, 0.8550706851580734, 130516000000
-0.04308677274126173, 0.12963631613705545, 0.8556910294636046, 130521000000
-0.0742721602387332, 0.17850716426044758, 0.8562813682717566, 130526000000
-0.05415715751090838, 0.10908704933578128, 0.8564200293406645, 130531000000
-0.038520499277998506, 0.14189324557671962, 0.8557278385686302, 130536000000
-0.04667820347941654, 0.1261264365527884, 0.8547620809192239, 130541000000
-0.06866497506114642, 0.050859143672716954, 0.8526200269343902, 130546000000
0.01870082833001905, 0.15225282799399417, 0.8504031484415691, 130551000000
-0.02891651789295177, 0.14973255734149876, 0.848910977428262, 130556000000
-0.03385266030345679, 0.14615982905965208, 0.8470115343775086, 130561000000
-0.06678963360653024, 0.15328414520920983, 0.8451302363526171, 130566000000
0.01640935046786156, 0.040911573749599486, 0.8434369478768052, 130571000000
-0.18041693516700702, 0.20483336853432255, 0.8415013611676199, 130576000000
-0.026146695532690924, 0.13471543543194647, 0.8402546408963453, 130581000000
-0.07956807879042595, 0.1579134772638556, 0.8395362674865384, 130586000000
-0.09000690638331717, 0.14914459135880173, 0.8399462399353655, 130591000000
-0.025614639963179666, 0.10926461324511669, 0.8398079824907912, 130596000000
-0.050728600774690935, 0.04331313936261192, 0.8388864253612308, 130601000000
-0.13231663177613887, 0.18071417273799303, 0.8380429038607813, 130606000000
-0.01716607533865542, 0.13216768597237874, 0.837134259393536, 130611000000
-0.0614801373881777, 0.16349366689957362, 0.8371192255129134, 130616000000
0.044783573286968366, 0.058755210973040005, 0.8365540832069195, 130621000000
0.014355733307495344, 0.1292734518580876, 0.833689819968528, 130626000000
0.11773913459219092, 0.2887219441473115, 0.8302778699412164, 130631000000
-0.11648254094068326, 0.033245553928472414, 0.823115783475606, 130637000000
0.08403335603253315, 0.29335569508292525, 0.8180702724098162, 130642000000
-0.1530616100022171, 0.013771899607607375, 0.811299608197945, 130647000000
-0.05693972263677411, 0.1116827952811142, 0.8057102516634839, 130652000000
0.08131185284009135, 0.2719274359983447, 0.7990880039246695, 130657000000
-0.11043927347788741, 0.06627734823633216, 0.7885798582685974, 130670000000
-0.05344515937004656, 0.16311769187659655, 0.7863852103269487, 130675000000
0.054177521076353555, 0.27113320094953686, 0.7842428416750693, 130680000000
-0.19019033173760447, -0.007893099202378621, 0.7839669152059692, 130685000000
0.060839859759875915, 0.28800649654583477, 0.784584353675351, 130690000000
-0.126826523556603, 0.011395166630108273, 0.7859428926505533, 130695000000
-0.07317071357274084, 0.1257383693773177, 0.7885148944109469, 130700000000
0.06053741417238126, 0.22752899363459828, 0.7910650061925605, 130705000000
-0.21136675926298187, -0.030278628501726947, 0.7942777294798397, 130710000000
0.0626260704964468, 0.263669893317372, 0.7970927196942686, 130715000000
-0.03811045523543502, 0.11169788778112953, 0.8005572835486355, 130720000000
-0.1824699200406514, 0.0038190302354601845, 0.8033558295394143, 130725000000
0.09339428598377172, 0.27289104719438756, 0.8058155062044314, 130730000000
-0.1911505934476586, -0.022293797516623533, 0.8075704241561745, 130735000000
-0.08250813315648753, 0.1247132716434633, 0.8089823573774311, 130740000000
0.12117185879384036, 0.29466754023511954, 0.8089191921129562, 130745000000
-0.18862707037221643, 0.017679796936378698, 0.8088265799029144, 130750000000
-0.035802670456646785, 0.167048905475137, 0.8084401313937851, 130755000000
0.06217615476818619, 0.23824555193145666, 0.8070688066043783, 130760000000
-0.24989211741084744, -0.02870702592366581, 0.8056447928092955, 130765000000
0.049240920709181096, 0.2210408626230846, 0.8022927540807181, 130770000000
-0.2233690815899514, -0.04468943869566672, 0.8000831298632123, 130775000000
-0.06468580715072089, 0.12648673422636725, 0.7972033644235189, 130780000000
0.06535477430736905, 0.26873725881994326, 0.7939458502407654, 130785000000
-0.18423428498559033, -0.027452846015557985, 0.7910327477207494, 130790000000
-0.034333752625113075, 0.15092649156725924, 0.7887398708380682, 130795000000
-0.06159966436870945, 0.1285169053480868, 0.7867854705701572, 130800000000
-0.04758936591827616, 0.12593763364106336, 0.7853692087789453, 130805000000
0.022698114422997975, 0.23614259675869004, 0.7850442218199303, 130810000000
-0.17670779167115389, -0.00822042335370474, 0.7845706108892835, 130815000000
-0.01621184881925185, 0.16242998399172154, 0.7854123977716357, 130820000000
0.06093466003791562, 0.22026219942980121, 0.7861945757502801, 130825000000
-0.15995489139730898, 0.023967755438927978, 0.7874039063876018, 130830000000
0.035758759466149065, 0.25187741319195367, 0.7893127097194147, 130835000000
-0.12978972487481294, 0.02207091554778263, 0.7911857439033567, 130840000000
-0.04330116063207443, 0.12524913429925236, 0.7929992420216473, 130845000000
0.029994410579431172, 0.22783391760446273, 0.7943820893206963, 130850000000
-0.16594281913158454, 0.0016205656912893357, 0.7961750652237286, 130855000000
0.043481375734213866, 0.20966694478104825, 0.7971996926110544, 130860000000
-0.14938104606066646, 0.014240326747683702, 0.7981200391232275, 130865000000
-0.07888311407264126, 0.15680707301579053, 0.7985225683969467, 130870000000
0.028753768677854816, 0.22829204257056215, 0.797635633134179, 130875000000
-0.1710664714145139, -0.021857452301286898, 0.7961801473989136, 130880000000
-0.05055561089229179, 0.1326699881134435, 0.79491007843946, 130885000000
0.058406277429527156, 0.213533045187906, 0.7922428664568879, 130890000000
-0.14296937280869354, 0.014823906739203266, 0.7902349512586468, 130895000000
-0.045672265157672705, 0.1364739275230606, 0.7881325445023751, 130900000000
0.05174868945374769, 0.21863455371244087, 0.7859148170295065, 130905000000
-0.16046699127696287, 0.016290596107926915, 0.7840785037226975, 130910000000
-0.047166291223353925, 0.13625514091149443, 0.7825454694945742, 130915000000
0.045307097211892695, 0.2106168762468078, 0.7814350563918779, 130920000000
-0.1433755649735919, 0.009711253863846695, 0.781173697690979, 130925000000
-0.039713499838706916, 0.12372125901335285, 0.7810307234179774, 130930000000
0.040061071331451835, 0.22268047847902409, 0.7808884917443429, 130935000000
-0.15163277577307344, -1.4114908818751992e-05, 0.7818010595545912, 130940000000
-0.034641281029212795, 0.13241837176246515, 0.7829966629625144, 130945000000
0.07484142153956597, 0.20329098655694336, 0.7838795075004179, 130950000000
-0.18989918608673864, 0.02085153142383411, 0.7853405886966237, 130955000000
-0.05989961765653734, 0.14467599230117845, 0.7862586770870313, 130960000000
-0.05621107560324919, 0.13531967043676155, 0.7878910755974644, 130965000000
-0.02698192459530876, 0.11270294593980687, 0.7889179039431766, 130970000000
-0.06736143220583218, 0.1147820635544693, 0.7887956583812346, 130975000000
-0.03863468472167519, 0.10761135163691385, 0.7885414984208686, 130980000000
0.04923918357768294, 0.19853535087822993, 0.7879729112321594, 130985000000
-0.13937150689568684, 0.01803501227427526, 0.7868626990206584, 130990000000
-0.05297901459306717, 0.12566589711066148, 0.7855051884514012, 130995000000
-0.014890197089093789, 0.11583732182032284, 0.7842023544747119, 131000000000
-0.06919096181753316, 0.11465482909027787, 0.7820951122066704, 131005000000
-0.08694397069621324, 0.13206851328797686, 0.7808485015051834, 131010000000
-0.03673487981833447, 0.10238937443487257, 0.7794221892417893, 131015000000
0.025089819137585838, 0.21636666718415531, 0.7780302317309419, 131020000000
-0.14628079429306035, 0.0031887403686955145, 0.7773187533566007, 131026000000
-0.03969057826962823, 0.12200323232213783, 0.7767891205240103, 131031000000
-0.07008310320511747, 0.11100094438520716, 0.7764808608006302, 131036000000
0.036874523927094636, 0.22907473504392756, 0.7766926238105634, 131041000000
-0.15900664912924137, 0.03512360752831259, 0.7771027537785063, 131046000000
-0.056467122422294874, 0.08731975385871563, 0.778019482664483, 131051000000
-0.07895624474765872, 0.10982560338021807, 0.7786178344988108, 131056000000
0.053465253108547627, 0.22655862687543707, 0.7793162263327921, 131061000000
-0.1782894927035059, -0.023360196017661997, 0.7806158022579067, 131066000000
-0.05023560864544384, 0.1315086840415809, 0.7813436495236779, 131071000000
-0.0447031047580245, 0.14564473667324523, 0.7818139700214193, 131076000000
-0.037937467734382634, 0.12569390931396132, 0.7811138251027869, 131081000000
-0.09531395005396559, 0.09784058254618122, 0.7804686003205354, 131086000000
-0.01459543864273996, 0.12317644514761454, 0.7796472189565763, 131091000000
-0.06843812340621208, 0.10475469579796111, 0.7785246589866103, 131096000000
-0.060861925479097675, 0.1258636272965451, 0.7774050946378258, 131101000000
-0.028214888341055358, 0.08580628515031159, 0.7759703198361124, 131106000000
-0.04632247767987464, 0.10909177402991921, 0.7742639316442582, 131111000000
-0.08468434371032212, 0.14733961329763398, 0.7733845780858369, 131116000000
0.023740909065550705, 0.2280204192099346, 0.7724677995091314, 131121000000
-0.2030075695125548, -0.03033285310935594, 0.7717368920292584, 131126000000
-0.04432658352174942, 0.12659515161867924, 0.7717425542562807, 131131000000
-0.04501344377804915, 0.11328859185848125, 0.7713259899592672, 131136000000
-0.05207906093656578, 0.10970896428628031, 0.7711457110530309, 131141000000
-0.06195471768283793, 0.1158638141032042, 0.7716458527335738, 131146000000
-0.04453303071520016, 0.11079645885922608, 0.7721461063382383, 131151000000
-0.0785474045150363, 0.09759445906030359, 0.7727413265802422, 131156000000
-0.080306770073854, 0.12448413828728529, 0.7734615269692119, 131161000000
-0.06085031793230532, 0.10312904053051826, 0.7745207295041028, 131166000000
0.015825667163079038, 0.2356190480750929, 0.7747686394505345, 131171000000
-0.1791401689965264, -0.0343963810109852, 0.7755200400857938, 131176000000
-0.03172475794198609, 0.14598770026066907, 0.7752108876717523, 131181000000
0.03633656937961368, 0.2003543922600774, 0.774494173031143, 131186000000
-0.1573814981665338, 0.006144925545847684, 0.7731654512294606, 131191000000
-0.02755239559329762, 0.11854774010248663, 0.7725333967113819, 131196000000
-0.06543143996231214, 0.1520192933922796, 0.7711453124922106, 131201000000
-0.05014089044588813, 0.12431854583256674, 0.7701791868216005, 131206000000
-0.07658491496619771, 0.10783069688999725, 0.76853955907096, 131211000000
0.08061025345507197, 0.27113186597891287, 0.7678602613983644, 131216000000
-0.18748674447656177, 0.0022237750740653137, 0.7666994947127237, 131221000000
-0.058853844881866166, 0.10717801815216231, 0.7659725924021994, 131226000000
0.018647291734030985, 0.2542074143866964, 0.7658641582933641, 131231000000
-0.20176805573877288, -0.01260027199451741, 0.7652195808842662, 131236000000
-0.02750133050620908, 0.16700201310662277, 0.7658868315926909, 131241000000
0.0760600375238888, 0.2661368125411609, 0.7655751799105173, 131246000000
-0.16524732338320414, 0.01347504506258174, 0.7666539075345069, 131251000000
-0.024827100588318926, 0.1540187089017896, 0.7668532838496124, 131256000000
-0.02791315730510099, 0.10656254302672022, 0.7673357355278126, 131261000000
-0.08969879514094856, 0.11668950091028604, 0.7685335900520199, 131267000000
0.048405957961023025, 0.22339470756752217, 0.7695746343779274, 131273000000
-0.21773273072538976, -0.05681295249058244, 0.7693384781467201, 131278000000
-0.05563740557897405, 0.14323883065855705, 0.769634161078826, 131283000000
0.06655509674977303, 0.24132397709994455, 0.7684728989085126, 131288000000
-0.21781923480936474, -0.02749003481613424, 0.767785731761225, 131293000000
-0.016762602169867163, 0.15320174881067933, 0.7668245443530027, 131298000000
0.037072523773456934, 0.24694522943700536, 0.7652370873996502, 131303000000
-0.18871144675639892, -0.0070310595539825205, 0.7638547579051395, 131308000000
0.05091180028010614, 0.2426459408666434, 0.7629252623009155, 131313000000
-0.15968476612754487, -0.011916436355866325, 0.7616932862580502, 131318000000
-0.08316829092005756, 0.11387111973194322, 0.760892910306536, 131323000000
0.04106211408219005, 0.2403781993250279, 0.7600589399338475, 131328000000
-0.17388050661605925, -0.04227306797830718, 0.7594427793113226, 131333000000
-0.05038800488792161, 0.1462211341828556, 0.7596790476598535, 131338000000
0.062383992435212816, 0.25001938357557846, 0.7598450934918797, 131343000000
-0.17079166391115405, -0.028787302378651753, 0.7601402660954005, 131348000000
0.0516763169593401, 0.20770236181638524, 0.7604214721108541, 131353000000
-0.14383213139678513, -0.018360874004986504, 0.76108176084664, 131358000000
-0.07758694703136325, 0.0969407954269243, 0.7618411937968704, 131363000000
0.06418630585550679, 0.25577797499613775, 0.7624057851031453, 131368000000
-0.1904697803651254, -0.04421423240389298, 0.7631365775775227, 131373000000
-0.039711559145839785, 0.14409268015377974, 0.7637970322381331, 131378000000
0.06941537042900062, 0.21015326976213802, 0.7639214501144952, 131383000000
-0.17905062429006038, 0.003827156748178153, 0.7634054903865466, 131388000000
-0.04350385350578324, 0.13222045952094036, 0.7625947212092404, 131393000000
0.05421977484757105, 0.23445302311327357, 0.7613397478974222, 131398000000
-0.17222777891578786, -0.010842853014036207, 0.7602061218361632, 131403000000
0.06777829012770761, 0.24152447054818732, 0.7593297880912446, 131408000000
-0.166366259854166, -0.020411927006321745, 0.7576630487695176, 131413000000
-0.060432878299279257, 0.11500760737559937, 0.7565106816415995, 131418000000
0.05464781568339827, 0.2523094874334847, 0.7553952213737172, 131423000000
-0.16137804778906745, -0.04401149691352943, 0.754234883576845, 131428000000
-0.023255465990938584, 0.11492264000800348, 0.7540833905420612, 131433000000
0.042730390008375134, 0.2532135769998075, 0.7535712074520285, 131438000000
-0.24452579762354093, -0.05732227686710969, 0.7539005699537207, 131443000000
-0.037805055458690645, 0.1397307074757012, 0.7540588798713928, 131448000000
0.06350564945639708, 0.2563399914087129, 0.7545770825663086, 131453000000
-0.219447048955959, -0.02142258574291481, 0.7547862982261778, 131458000000
-0.028753830758840485, 0.1500287956850079, 0.7561415809791283, 131463000000
0.07757910307241755, 0.2276356213824867, 0.7566178406374641, 131468000000
-0.17972926667825148, -0.028739491689888683, 0.7572165533765893, 131473000000
-0.05617492319706167, 0.07026481183849104, 0.7580547271956222, 131478000000
-0.05420307906646989, 0.11036383086665286, 0.7584322079864437, 131483000000
-0.07382202906668793, 0.15365820487620402, 0.7575465944007302, 131488000000
-0.054897879415722675, 0.11408029924440505, 0.7570829062814426, 131493000000
0.06408362866269943, 0.26874118019463367, 0.7561867764473085, 131498000000
-0.1623231972052385, -0.024233900740904216, 0.7549542188042304, 131503000000
-0.027955081237183647, 0.1020665242430916, 0.7541918613352102, 131508000000
0.02769695362236438, 0.24733744061149734, 0.7525900128587436, 131513000000
-0.13448359236937854, 0.015234695571687433, 0.7507375842775375, 131519000000
-0.04924631011489726, 0.1447228978837603, 0.7499138541686813, 131524000000
0.04975469238665045, 0.22788872853973785, 0.7494432219639964, 131529000000
-0.1499266470686183, -0.028853187916159886, 0.7484150812415745, 131534000000
-0.04716966468937072, 0.13925268078889863, 0.7483989978732846, 131539000000
-0.02713270293032315, 0.12488743083147036, 0.7482880634320982, 131544000000
0.08961563434250765, 0.23314661474894235, 0.7481109859393564, 131549000000
-0.1949660655065936, -0.04692971662132983, 0.7485061803033535, 131554000000
-0.04956303712958406, 0.1110301932969468, 0.7493205131651521, 131559000000
0.044972078030881046, 0.2525115661511853, 0.7499849892136139, 131564000000
-0.14539059299088608, -0.03010773134752778, 0.7506305613262289, 131569000000
-0.07962219067266932, 0.15896039225593117, 0.7513854772206089, 131574000000
0.05537319664570924, 0.2627036261544535, 0.7522997929519277, 131579000000
-0.1536753387710959, 0.008201677578412687, 0.7522759577075122, 131584000000
-0.06758995120879498, 0.07691872692206683, 0.7522048345928897, 131589000000
-0.02967122157843771, 0.12853650511390705, 0.7514880682051418, 131594000000
-0.05507420204191967, 0.10031775862555065, 0.7502727149457907, 131600000000
-0.05822701354587988, 0.141589133745402, 0.749192829111759, 131605000000
-0.07154072949853052, 0.10379554102747512, 0.7480719487753557, 131610000000
-0.026521964937717867, 0.15436579672083123, 0.7469947682978852, 131615000000
-0.05562464921176209, 0.08319788079661608, 0.745560364077833, 131620000000
-0.042488185475273894, 0.1345016595636206, 0.7446529469508135, 131625000000
0.05289504252236402, 0.27745535034076774, 0.7440602175621125, 131630000000
-0.1688711981860314, -0.008029839551854538, 0.7429782133525232, 131635000000
-0.040674317771927836, 0.12763086419083247, 0.7427995829268027, 131640000000
-0.011909386699665063, 0.13117352341367655, 0.7426051551081078, 131645000000
-0.06238121518680652, 0.1464641555073159, 0.7425423432242455, 131650000000
-0.059401707780678985, 0.12885900615466045, 0.7431649698138819, 131655000000
-0.052488540485266605, 0.10684397937745024, 0.7435357450218554, 131660000000
0.03315407926608897, 0.24529277004108171, 0.7437226118672168, 131665000000
-0.17121479160441497, -0.001879140142322499, 0.7446784861047167, 131670000000
-0.015767709644297523, 0.13147178496827922, 0.7457654466459737, 131675000000
0.02018393224610086, 0.23401341690388314, 0.7460763825636667, 131680000000
-0.14970851523066714, 0.0024474725306419037, 0.7469171943306994, 131685000000
-0.05955837347049518, 0.1452412726765761, 0.74654060779408, 131690000000
-0.054246423144127, 0.13050921785326663, 0.7457819304977739, 131695000000
-0.055225243539130595, 0.11382450318424693, 0.7450750426713317, 131700000000
-0.09000667093897091, 0.1434461420485164, 0.7443154193286019, 131705000000
-0.02216546462467456, 0.1124596287418759, 0.7434779520583997, 131710000000
-0.045315886648311876, 0.10577952326060508, 0.7417523529518872, 131715000000
-0.05242605857033615, 0.11845322604955547, 0.7402269780199082, 131720000000
-0.019242327733197548, 0.12539318097036695, 0.7395264303412428, 131725000000
-0.032267305792243066, 0.13863619636411428, 0.7386624627447731, 131730000000
-0.06967929136684314, 0.10634993549310025, 0.7377977824567907, 131735000000
-0.04663783585495179, 0.1490580802718577, 0.7376596042727908, 131740000000
-0.018905079256546352, 0.08487400198364689, 0.7371454113373177, 131745000000
-0.05031594441218038, 0.12682861220626046, 0.7370900363877326, 131750000000
0.022043619894324403, 0.22933719846111655, 0.7373439207335126, 131755000000
-0.1707747529367989, -0.008495113141077506, 0.7375988148305024, 131760000000
-0.048073922069328395, 0.12968717512957384, 0.7381233795392739, 131765000000
-0.004198772827986554, 0.1827923634474001, 0.7390003931167093, 131770000000
-0.1632124491849361, 0.001979985726356019, 0.7392340930643991, 131775000000
-0.05431547811549228, 0.09457967825867575, 0.7402271460257918, 131780000000
-0.0604389774479562, 0.11512466089102504, 0.7410429860410148, 131785000000
-0.05942100865518611, 0.12152926142631205, 0.7407358247767558, 131790000000
-0.06042900757149555, 0.07953030384083959, 0.7408920116698521, 131795000000
-0.038462064684924115, 0.11447854470026285, 0.7400453551557523, 131800000000
-0.02755395499085212, 0.14142929211152372, 0.7389259272876527, 131805000000
-0.05518413906903452, 0.10507599042798724, 0.7383122552803072, 131810000000
0.020645374964710337, 0.22984338301705204, 0.7368774237751793, 131815000000
-0.14152101890274157, -0.00028629672004138026, 0.7353772286115583, 131820000000
-0.06867840916015822, 0.13959841271071705, 0.734465975816241, 131825000000
0.0415189728462632, 0.2623567786341584, 0.7331063869494446, 131830000000
-0.178977260509038, -0.016834088427775784, 0.7324409037701557, 131835000000
-0.05103034245672883, 0.13889121059899318, 0.7324610282520068, 131840000000
0.07342363680529403, 0.2414699256289363, 0.7316164031670307, 131845000000
-0.1753399123937442, -0.02497782220488226, 0.7318285814275826, 131850000000
0.044694960569718674, 0.2216531056944857, 0.7315764614330142, 131855000000
-0.1593925738420154, 0.025218668681308877, 0.7311669718583127, 131860000000
-0.0224477753410612, 0.1368737491295981, 0.7306130667772298, 131865000000
0.0029502057798012488, 0.2405966798837721, 0.7303517139066958, 131870000000
-0.18911595345885598, -0.03756408872025743, 0.729895006726086, 131875000000
-0.055605239662893935, 0.141177812068363, 0.7297502962744943, 131880000000
0.047308813456036075, 0.25429768947355985, 0.7291021167884468, 131885000000
-0.16171760448021305, -0.010289560872348391, 0.7288545937493113, 131890000000
-0.03267039110827087, 0.14058789575707167, 0.7287392206339108, 131895000000
-0.043673354988570716, 0.11885878912562203, 0.7284778748928606, 131900000000
-0.10287893902619101, 0.09240543924620813, 0.7288271665189465, 131905000000
0.07844149446949016, 0.26033331878665394, 0.7289893944864131, 131910000000
-0.19182711946148276, -0.018086974396939175, 0.7286018532859009, 131915000000
-0.025920698923306007, 0.14161323200981296, 0.7287716048508422, 131920000000
0.04149290457954913, 0.2572020693961341, 0.7294049986002736, 131925000000
-0.19386318656648943, -0.024707721336379388, 0.7295307316288616, 131930000000
-0.04317868362018716, 0.09557827171850015, 0.7297442513403127, 131935000000
0.0589676653014377, 0.26841086294481376, 0.7297178306964521, 131940000000
-0.16485079009819367, -0.00027037218996704, 0.7301879587322827, 131945000000
-0.04831607945766196, 0.12984083052375475, 0.7303721059227625, 131950000000
0.05120574163942494, 0.255498659292404, 0.7301630813843022, 131955000000
-0.16467567925416202, 0.007759638347322059, 0.7298583020505512, 131960000000
-0.0263569141207737, 0.1234201752960264, 0.7295617122186339, 131965000000
0.0552199778518013, 0.24717604912584917, 0.7279541804760443, 131970000000
-0.17646226341268498, 0.013402613698612176, 0.7270670309928241, 131975000000
-0.054009149696861575, 0.15587458907523502, 0.725604006690193, 131980000000
-0.00923836259231367, 0.134030883271515, 0.7246741241923916, 131985000000
-0.058642361335733875, 0.09401401355040367, 0.7239236372953657, 131990000000
0.08517882003969894, 0.24069232370682772, 0.7226593232052511, 131995000000
-0.14893266199836105, -0.006816452830721539, 0.7216394647318283, 132001000000
0.06881985214981685, 0.2748601016858048, 0.7212883609919839, 132006000000
-0.17876142745547444, -0.015150431042269718, 0.721146780451701, 132011000000
0.02667385115468584, 0.1968065211694024, 0.7210796700621053, 132017000000
-0.07290643436019595, 0.13896014695307482, 0.7210249621814481, 132022000000
-0.16068342218374662, -0.04419770688989971, 0.7217717198868078, 132027000000
-0.03797546993333823, 0.1242448794893965, 0.7229776700082341, 132032000000
0.02284323909790003, 0.24210748576552563, 0.7229639974566968, 132037000000
-0.1219693917128048, -0.04141426409983218, 0.723835670972983, 132042000000
-0.031708188966746514, 0.1332017806801162, 0.7249698292413337, 132047000000
0.06336204428416822, 0.2904307645098915, 0.7250996379901743, 132052000000
-0.202479254020451, -0.018153585367719976, 0.725661631657135, 132057000000
-0.07111619956021617, 0.1328474061878688, 0.7256435013253796, 132062000000
0.04620596748452802, 0.24689816224424724, 0.7248230768112081, 132067000000
-0.15226716622732345, 0.008175541098395227, 0.7241261976638247, 132073000000
-0.030942453147410714, 0.12217351402929898, 0.7226997361840708, 132078000000
-0.050505684746094924, 0.13780025270123433, 0.7219803494528488, 132083000000
-0.06232974905808965, 0.12465764848345724, 0.7204275603544377, 132088000000
0.017490323132875903, 0.23256896612680156, 0.7192916910951258, 132093000000
-0.18336307167088864, 0.0023380949251055848, 0.7186493978166705, 132098000000
-0.03849110999102287, 0.11968110292080154, 0.7183017224042433, 132103000000
-0.036637455635721114, 0.2610316768594744, 0.7173716174188839, 132108000000
-0.13799977734134483, -0.021080139752105834, 0.7177491611285122, 132113000000
0.0008067769251921316, 0.13133043732981925, 0.7186985933777899, 132118000000
0.06196478907376524, 0.23776948493561506, 0.7188583855521538, 132123000000
-0.1273389934626625, 0.03884807113490639, 0.7205579918017766, 132130000000
-0.04216585624084355, 0.11381796767282847, 0.7209791482204493, 132135000000
-0.02125209905607254, 0.2503561272196084, 0.7215485836124043, 132140000000
-0.1479465175512836, 0.010292336618349322, 0.7224038941536274, 132145000000
-0.03955273067409735, 0.11103824361157655, 0.7228071495806005, 132150000000
-0.009092780418139625, 0.2542913791234409, 0.7231685209362726, 132155000000
-0.1282209198225261, 0.008776041468602655, 0.723274571008925, 132160000000
-0.04050221901906972, 0.10239216683927577, 0.7226434587242769, 132165000000
0.08475456013125897, 0.2479043249810877, 0.7221870621354723, 132170000000
-0.12817574349477284, -0.0004016525437990637, 0.7203503622649274, 132175000000
0.044868715952241414, 0.23755355963798952, 0.7182534659883987, 132180000000
-0.13462998402443305, 0.03668970745952653, 0.7163931284542274, 132185000000
-0.04935870930229827, 0.12670694082938205, 0.7143051182183088, 132190000000
0.04984804507939946, 0.24013430564614907, 0.712595851417763, 132195000000
-0.15461889866516368, -0.00596561496534977, 0.7113192138987029, 132200000000
-0.027259905848748992, 0.14355922550352626, 0.7101030513525518, 132205000000
0.013695610624457278, 0.20896793400133343, 0.7087460190771304, 132210000000
-0.19647114243601876, -0.03936641250061883, 0.7085664242817779, 132215000000
-0.07051018856567207, 0.11982384488438559, 0.7086365743838956, 132220000000
0.007133521771186958, 0.1504025661810774, 0.7087111331480924, 132225000000
-0.08554657662715745, 0.069973049951458, 0.7093377669187864, 132230000000
0.034103528556829354, 0.21996163498727037, 0.7102203280252672, 132235000000
-0.15246117300471335, 0.022350329566098275, 0.711469383900121, 132240000000
-0.05352341338742025, 0.13920486968205661, 0.7120688788681945, 132245000000
0.0647410265790854, 0.2276956098520414, 0.7132996055003665, 132250000000
-0.14118911504568227, -0.024559102655968626, 0.7144971666050506, 132255000000
-0.044061882692500824, 0.14294319395498994, 0.7157074145829223, 132260000000
-0.04496955776729926, 0.08581993211501232, 0.7156575222539537, 132265000000
-0.07886712341982172, 0.07192666301753356, 0.7155532737697412, 132270000000
-0.08276996796392805, 0.1240792540379158, 0.7155497868758957, 132275000000
-0.05716232292847427, 0.1413274007139737, 0.7143453898833434, 132280000000
-0.07933354280698247, 0.1284782756161136, 0.7131993300467219, 132285000000
0.06969898655582749, 0.2323646976776698, 0.7118514653794914, 132290000000
-0.12968444370803453, 0.013420095949850382, 0.7102637806815517, 132295000000
-0.054499063389861845, 0.12460109774570305, 0.7095437725015256, 132300000000
0.057483041512374655, 0.2332534203723094, 0.7073996280465158, 132305000000
-0.1585226356763086, -0.012092178193439995, 0.7068233060593776, 132310000000
-0.05576539950275057, 0.1243580011424627, 0.7058534068133693, 132315000000
0.07159673341916531, 0.2314098721690061, 0.7052380614183729, 132320000000
-0.1469066939874316, -0.019334972325315097, 0.7048580773442303, 132325000000
-0.05608190565335688, 0.11905351830382802, 0.7051238253124, 132330000000
-0.059299022092774455, 0.12979592393832107, 0.7054250424413933, 132335000000
-0.06752432299145662, 0.10930796077765154, 0.7060975445312866, 132340000000
-0.04278072945094775, 0.15721775287063688, 0.7064507171520992, 132345000000
0.04000837012375669, 0.2494601573955909, 0.7069491145443818, 132350000000
-0.1505343369893428, -0.033756086998697366, 0.7078051201464571, 132355000000
-0.014246062110922698, 0.13541838995070188, 0.7091741537942804, 132360000000
-0.06700692227579842, 0.13220040252454468, 0.7096222463943749, 132365000000
-0.06240716598804911, 0.09445172430779737, 0.7098039530686044, 132370000000
0.08349669309865815, 0.2784044770083761, 0.709317106641668, 132375000000
-0.1687781243947643, -0.034276877467244074, 0.7083909750623467, 132380000000
0.04991469805342779, 0.212596140842762, 0.7076171155931832, 132385000000
-0.1159329762062769, -0.00550610388482294, 0.7064585752102451, 132390000000
-0.08487650702544436, 0.10101436836095103, 0.7057871228584784, 132395000000
0.030341325864308818, 0.24333272643432677, 0.704370696759827, 132400000000
-0.16986950816126006, -0.03498279343165167, 0.7030493066104754, 132405000000
-0.064493719779169, 0.15671667889319107, 0.7023843934881778, 132410000000
-0.05776194259162071, 0.12279349446337856, 0.701165128883053, 132415000000
-0.10289857661126955, 0.10050916938692787, 0.7015672365827872, 132420000000
-0.05595754189879825, 0.12528931267561205, 0.7011566749493049, 132425000000
-0.05561023852207321, 0.12668713476889337, 0.7004676941299184, 132430000000
-0.05931318755298611, 0.10395042984426646, 0.7009576528203243, 132435000000
0.08065931900829826, 0.2531958980247586, 0.7013645016539116, 132440000000
-0.17055448915266122, -0.041142033266778844, 0.7017874987223505, 132445000000
-0.027380402938839442, 0.1415931528542914, 0.7026138483726122, 132450000000
0.06292715997789813, 0.2818716795207095, 0.702734907163369, 132455000000
-0.18651158503134466, -0.028069948440237073, 0.703609051781264, 132460000000
-0.0604904075198833, 0.15142591848941403, 0.7042807916617856, 132465000000
0.04144249770306302, 0.22671087559453365, 0.7040787088552045, 132470000000
-0.12513597835969675, -0.00887902063925005, 0.703590804887349, 132475000000
-0.03856661311133171, 0.14063562825803078, 0.7037935217026681, 132480000000
-0.06282961132503531, 0.13935773929706244, 0.7025522276882876, 132485000000
-0.07391159377564195, 0.11428637686063489, 0.7018317348233511, 132490000000
-0.028059839148941997, 0.10374243147692411, 0.7005292882941754, 132495000000
-0.04653673157458893, 0.12914986790823396, 0.6992274815677825, 132500000000
-0.08487386036232883, 0.12998101663213416, 0.6987302391922218, 132505000000
-0.024860754214443174, 0.13086500427654113, 0.6981072896825617, 132510000000
-0.02918975788754534, 0.11981748551665325, 0.6970532092707458, 132515000000
-0.058639628730291334, 0.11681391997541074, 0.6967878651954375, 132520000000
0.016051036846053128, 0.19068839294499473, 0.696167649099938, 132525000000
-0.1349066822442955, 0.013039197784571951, 0.6959090299523855, 132531000000
-0.03415106174037878, 0.11139999512940335, 0.696463315166335, 132536000000
0.022944226503394786, 0.21698831064184443, 0.6969955655584154, 132541000000
-0.16097089759339542, 0.0008409786164740645, 0.6969111585684102, 132546000000
-0.0501289802990951, 0.10008978198519888, 0.6977347650871919, 132551000000
-0.04961656865036559, 0.13280767125864337, 0.6986153008822102, 132556000000
-0.04950654042705123, 0.13781884686008783, 0.6989713017378377, 132561000000
-0.07507257678343472, 0.09875390817645237, 0.6993172999857988, 132566000000
-0.10121709700839544, 0.1420903079980699, 0.6996903464322289, 132571000000
-0.011076434028450655, 0.1374483008092137, 0.6989388044662155, 132576000000
-0.046175184267825325, 0.08151692846646377, 0.6984496532725957, 132581000000
-0.036882257200458096, 0.12118769298500962, 0.6976318974219957, 132586000000
0.05797144678572042, 0.246129052692197, 0.6966668877886071, 132591000000
-0.14048841876124005, -0.0027599494207378936, 0.6956903046998361, 132596000000
-0.06671921535467167, 0.14175777921097954, 0.6949337315099268, 132601000000
0.048996475621014404, 0.24833742308503132, 0.6935749257012247, 132606000000
-0.12276801753438257, -0.009660108504050373, 0.6924565686461096, 132611000000
-0.04840575746344183, 0.15030087470127138, 0.6922532920426158, 132616000000
0.027943558052230956, 0.238444543029891, 0.6913919021151675, 132621000000
-0.1960414450650761, -0.06462336143014519, 0.6913405040540227, 132626000000
-0.0853203053578971, 0.14738082661036458, 0.6910945126641967, 132631000000
-0.0738630348593576, 0.13070551366672606, 0.6915001504241217, 132637000000
-0.049918725542388714, 0.08743921898834772, 0.6915995593796677, 132642000000
-0.043532581482690805, 0.13123036165202365, 0.6922905208042093, 132647000000
-0.06165350393575736, 0.12415226189906356, 0.6927234296149144, 132652000000
-0.049575161720335756, 0.11939951005251104, 0.6933490191422395, 132657000000
-0.06795216764830656, 0.10642467805857753, 0.6937501702400072, 132662000000
-0.05980966105008042, 0.11498759125778422, 0.6942841953072864, 132667000000
0.05061512150308936, 0.2442225256669121, 0.6944985317068125, 132672000000
-0.13806918442937732, 0.00015159062797026092, 0.6946417430708782, 132677000000
-0.05284741645150084, 0.11573836045046945, 0.6941441350436556, 132682000000
0.007503798652833786, 0.20968762346333283, 0.6932905513855225, 132687000000
-0.13216884922062347, -0.028936384573051595, 0.6923045410760325, 132692000000
-0.07549135435985496, 0.10682524263045566, 0.6914356612714254, 132697000000
-0.0017288007364135577, 0.23001690107201167, 0.6899117118832336, 132702000000
-0.15170143813408976, -0.0028714243509143107, 0.6893862978502543, 132707000000
-0.04496957496567838, 0.11766179880010358, 0.6884287678891745, 132712000000
-0.08345346212202762, 0.11309085945095468, 0.6871295532341065, 132717000000
-0.04610432587619148, 0.09314660416849958, 0.6866387758152571, 132722000000
-0.05233035262906642, 0.12734155288989155, 0.6864826259544079, 132727000000
0.054587453539653046, 0.2202212902759521, 0.6865840232649565, 132732000000
-0.14846357649223196, -0.031491632822139445, 0.6868547297352321, 132737000000
-0.028256870444381105, 0.09889762698019817, 0.6872156066353022, 132742000000
0.0436547761816781, 0.22155373644239112, 0.68666322852148, 132747000000
-0.1467746473309792, -0.030689669947276482, 0.6875015603282707, 132752000000
-0.07122029965348806, 0.12365396251717438, 0.6883041645617232, 132757000000
-0.05804828794845379, 0.08699555056510376, 0.6888277195301973, 132762000000
-0.07128741790683181, 0.11925947819725298, 0.6890097281062069, 132767000000
0.026937136155575896, 0.20024129986610736, 0.6900684197555056, 132772000000
-0.15384447995187497, -0.03275110425729507, 0.689868674408555, 132777000000
-0.03813041038048731, 0.13487051754912294, 0.689607519942891, 132782000000
0.01707557704950887, 0.254117161790278, 0.6891376835820747, 132787000000
-0.16607795658532717, -0.018235323737621042, 0.6878502946826535, 132792000000
-0.04916702187119721, 0.12448839287730613, 0.687158582449761, 132797000000
0.03637962162095577, 0.22224058270044206, 0.6857042791899617, 132802000000
-0.14586884682585297, -0.004665646704613939, 0.6848942180610299, 132807000000
-0.07119607027641411, 0.1102969036875909, 0.6841150081487279, 132812000000
0.028071539352479986, 0.2124391797987404, 0.6830397371597962, 132817000000
-0.1513391896604408, 0.0014772050653886586, 0.6827133843467718, 132822000000
0.03302426579134705, 0.2140302188926466, 0.6820198267638288, 132827000000
-0.1078099012404279, -0.0019891249430636607, 0.6819548843752292, 132832000000
-0.03715247847794297, 0.12680841432681272, 0.6820835637900418, 132837000000
0.019691253423346836, 0.26963838327991946, 0.6815759581027251, 132842000000
-0.14973018528515547, -0.024736602494204524, 0.6818388724998857, 132847000000
-0.0487639180163972, 0.12602518606544721, 0.6828194963577985, 132852000000
-0.023161669524643637, 0.14970232985364076, 0.6833463491417542, 132857000000
-0.06816876663103703, 0.12419795427314456, 0.6842228435646834, 132862000000
0.03715976295312213, 0.22148500199335613, 0.6846046374008453, 132867000000
-0.15260214346263487, -0.019329752978171334, 0.6851966336611136, 132872000000
-0.03611609881852175, 0.13970984732949054, 0.6853424141905099, 132877000000
0.040834376637770245, 0.22670824606764417, 0.6849418324680445, 132882000000
-0.12578765081802226, 0.021716881982461217, 0.684510285402956, 132887000000
0.031511623553543186, 0.23119007400477265, 0.6837978151729871, 132892000000
-0.1507159329031945, -0.03546909926616382, 0.6828484168514992, 132897000000
-0.0752205171043903, 0.11788426201157945, 0.6819725693399945, 132902000000
0.02936730099083027, 0.1732445230712989, 0.6800243846233532, 132908000000
-0.1276536706985014, 0.019532561724922966, 0.6796630045845123, 132913000000
0.05027464139202727, 0.23627933814002647, 0.6784774140597476, 132918000000
-0.1327463218032851, -0.006919908544277403, 0.6780869353974551, 132923000000
-0.07938746105167227, 0.13259391186371958, 0.6774410223570012, 132928000000
0.033454314217602386, 0.2250535012794716, 0.6771695686843194, 132933000000
-0.17618543066575654, -0.043603156466232786, 0.677069045183305, 132938000000
-0.045442790859655795, 0.11717436316683515, 0.6774310496760927, 132943000000
-0.06208665725524498, 0.14541241486674336, 0.67792661980833, 132948000000
-0.07920406663105128, 0.08428838071294745, 0.6780894849497683, 132953000000
0.02487253423450037, 0.24635775203589605, 0.6783928221358535, 132958000000
-0.15328850459495982, 0.034604799615598335, 0.6795757973903601, 132963000000
-0.042102934179901824, 0.12732599378115877, 0.6797982624632002, 132968000000
0.012569532750118191, 0.23575817596091095, 0.6798617999562919, 132973000000
-0.1663844765808073, -0.005022771761403262, 0.6805509797000351, 132978000000
0.002483837079308531, 0.2164741651338149, 0.6806160737107249, 132983000000
-0.14202882851675874, -0.02784688085823238, 0.6798687011691252, 132988000000
-0.023090719130337688, 0.1130791623635797, 0.6796628232670082, 132993000000
0.013328146256898137, 0.24691112803934248, 0.678431186457559, 132998000000
-0.13887021598867944, 0.017506519445030518, 0.677023833410558, 133003000000
-0.0797257772681144, 0.12429148022856017, 0.6765553333993275, 133008000000
-0.04216986340232418, 0.11040336390722497, 0.6750330846951734, 133013000000
-0.054769639850335464, 0.10160402418268749, 0.6744089816840048, 133018000000
0.03962676613608607, 0.2444829828263169, 0.6734515166881897, 133023000000
-0.1496217384942761, -0.04292593450640031, 0.6733471541067277, 133028000000
-0.09461436706085319, 0.12942286665593805, 0.6729551888685804, 133033000000
0.041396714945374974, 0.23702602735289255, 0.6724188885607916, 133038000000
-0.16413250253372327, -0.01960321391442358, 0.6726546290593446, 133043000000
-0.024736372201988113, 0.11797618821306123, 0.672776439733723, 133048000000
-0.036343901810980676, 0.09640759572266705, 0.6730585386386378, 133053000000
-0.07388172325808304, 0.08800216713416853, 0.6734642510606427, 133058000000
0.03652548369015449, 0.2753984033224333, 0.6742466923272149, 133063000000
-0.14583072625872878, -0.03484367359961115, 0.6746903062528026, 133068000000
-0.07352125995915443, 0.12264148104963056, 0.6759357748070902, 133073000000
0.03430383922952957, 0.2312039344338873, 0.6761373905645985, 133078000000
-0.1258532053143522, 0.00718613818161364, 0.6760029454467065, 133083000000
-0.05814829878925426, 0.106711221102101, 0.6757603044278369, 133088000000
0.03420924918437043, 0.21841423798806023, 0.6751694620846457, 133093000000
-0.1754901979939033, -0.009791324231473476, 0.6738369779431791, 133099000000
0.020993409693284792, 0.1811504600181107, 0.6730158029377126, 133104000000
-0.16526034592059366, -0.0074242118799516185, 0.6718754440043689, 133109000000
-0.046795565221372945, 0.11088474801491659, 0.6708865110220499, 133114000000
0.0537004018591315, 0.2271205314127941, 0.6701693357638919, 133119000000
-0.14698254358605214, -0.015150907608466088, 0.6694996276205066, 133124000000
-0.05493169955030323, 0.11554003083121078, 0.6687090822175419, 133129000000
0.02617362197077544, 0.24537499475045713, 0.6680996417243252, 133134000000
-0.17782779329227055, -0.04480786196947771, 0.6679086998347221, 133139000000
-0.08321685893652861, 0.12247746470291242, 0.6678320424186824, 133144000000
0.0656489880764011, 0.26408916358666035, 0.6682703107267134, 133149000000
-0.15958630577167734, 0.011476195300099416, 0.6686376105689995, 133154000000
-0.0587817343113431, 0.12575725071092342, 0.6692882026506684, 133159000000
0.04610007410420488, 0.23219442150597175, 0.6694724507158474, 133164000000
-0.1428982843490447, 0.031085659983511253, 0.6703943847351627, 133169000000
-0.039062579979110404, 0.09005719593477726, 0.6710359744431464, 133174000000
0.044061352402438796, 0.2195750424439018, 0.6710940965075914, 133179000000
-0.16391092402970978, -0.006597171694843017, 0.671488423105282, 133184000000
-0.05798886289782203, 0.11227130593664969, 0.6711368408934856, 133189000000
0.020932961994764843, 0.22190298851155604, 0.6703295164003736, 133194000000
-0.139043508882525, -0.013546791303317072, 0.6695165057352224, 133199000000
-0.034032635100463435, 0.1253995397429108, 0.6690639653703455, 133204000000
0.019879416477511486, 0.23545251214600005, 0.6678258988967586, 133209000000
-0.1111274413941164, -0.023513954565816123, 0.6667451413364913, 133214000000
-0.018370545551814242, 0.10755482151735796, 0.666312517798307, 133219000000
0.0451501995903376, 0.2057820593555722, 0.6649144995154628, 133224000000
-0.14914488091505948, -0.01908009537642845, 0.6644176476226726, 133229000000
-0.08144232446497918, 0.09741077697684256, 0.6639383060520806, 133234000000
0.09331375468969344, 0.26428451540923753, 0.6633849788179578, 133239000000
-0.1807500492921431, -0.011199627721352858, 0.6634097229375145, 133244000000
-0.05629526985869875, 0.1276421615632983, 0.6641647605593861, 133249000000
0.012790486904139302, 0.2194269211716788, 0.6633334373664003, 133254000000
-0.12336720677739672, -0.031079161208749866, 0.6627929576198144, 133259000000
-0.0625769401697904, 0.12297135903490758, 0.6629724264420519, 133264000000
0.045783330483791664, 0.21689445936683052, 0.6621676525066138, 133269000000
-0.14302883904633296, -0.04540903039149601, 0.6619210165606578, 133274000000
-0.03370285791971947, 0.09937744108225416, 0.6619345429869036, 133279000000
0.005880743986574396, 0.21495179262809755, 0.6611750392671704, 133284000000
-0.17463708265072367, -0.013294570863679498, 0.6613200790400602, 133289000000
-0.037589819590164594, 0.1324838381843852, 0.6612183306048246, 133294000000
0.04232704448321667, 0.2129999984822095, 0.6608938632859631, 133299000000
-0.11887630410815761, -0.027918621722812422, 0.6614406227423187, 133304000000
-0.03358122014600319, 0.08938581017000509, 0.6610797489757421, 133309000000
0.05042868684823704, 0.20946517271554618, 0.6611560838915629, 133314000000
-0.15530417305358132, -0.003047462627452188, 0.6616212176565393, 133319000000
-0.03431983404425648, 0.14409669872033876, 0.6615338853926653, 133324000000
0.032458059118821526, 0.24823804546923509, 0.6618304322148681, 133329000000
-0.11591150773379048, -0.02270951842997011, 0.6619810413460944, 133334000000
-0.019622567857999346, 0.12597453514723075, 0.6620464883985832, 133339000000
-0.05611970153426223, 0.11506315738012213, 0.6622346162453505, 133344000000
-0.07168597585562225, 0.07942520667175276, 0.6622915688134615, 133349000000
-0.07099277523659815, 0.08504667062914048, 0.6624193379837082, 133354000000
-0.03503133852507283, 0.12144002021864907, 0.6611269762814636, 133359000000
-0.0800546922120928, 0.09926281003902916, 0.6605287508924931, 133364000000
0.01271274871924766, 0.20681527379808057, 0.6598569433199504, 133369000000
-0.09509572970767585, -0.004204532600082988, 0.6586183368294882, 133374000000
-0.061489422878172544, 0.14463569488073316, 0.6575295662424979, 133379000000
0.02845919477810263, 0.23171302705578925, 0.6570798582719618, 133384000000
-0.16596179760365443, -0.03617118671324103, 0.6560467934198716, 133389000000
-0.05686966026132929, 0.13078209470391455, 0.6558760952146186, 133394000000
-0.004652309519843259, 0.24249663097015786, 0.6553345285718845, 133399000000
-0.1391381788375831, -0.03309105199320347, 0.6549194319774096, 133404000000
-0.0514835832527626, 0.12418437562924245, 0.655036770522943, 133409000000
-0.07308554094615624, 0.11140873061039203, 0.6549426157193214, 133414000000
-0.04569985720686615, 0.11862609058134141, 0.6557429766939791, 133419000000
-0.05629715811686574, 0.0972713153489342, 0.6561558954095051, 133424000000
-0.04144633506579701, 0.10145830278962964, 0.6565700669040616, 133429000000
-0.038999347805036, 0.10066015849771774, 0.6568947092844776, 133434000000
0.028258661247643386, 0.24321056873768518, 0.6574310252965032, 133439000000
-0.15652071562647715, -0.034339975154372177, 0.6580125149029061, 133444000000
-0.039202378698285065, 0.0969755979618961, 0.6586692308778028, 133449000000
0.03833905113809441, 0.2355238370027562, 0.6585502642496731, 133454000000
-0.15259266693903203, -0.010574581364444021, 0.6587677187086046, 133459000000
-0.07322476933021509, 0.1195549760181931, 0.6582188866532852, 133464000000
-0.07516703893269547, 0.11946516099400485, 0.6566787342635919, 133469000000
-0.08132550149960124, 0.11154050952563747, 0.6558622466448564, 133474000000
0.0025708186980528402, 0.20847420029617159, 0.6552279657885384, 133479000000
-0.13344287334859162, 0.0025744642580139664, 0.6542676424128103, 133484000000
-0.04240382477969759, 0.1216704429513842, 0.6534404563563149, 133489000000
0.040435197512327624, 0.23186453619789163, 0.6521074218879807, 133494000000
-0.1503489548669168, 0.05660752232195408, 0.6513088583493877, 133499000000
0.0432303413481087, 0.2503646498068467, 0.6507894793761168, 133504000000
-0.1552499981932093, 0.013459644147353008, 0.6504656804046172, 133509000000
-0.07601354070862149, 0.12228654669565867, 0.6505755163346926, 133514000000
0.063483173923701, 0.30416818001561463, 0.6502648784925807, 133519000000
-0.13232061630129485, 0.009759858368067763, 0.6504632881721103, 133524000000
-0.04868699371390254, 0.14068326099447143, 0.6513739351234015, 133529000000
-0.06623213113210502, 0.08078924710717321, 0.6519475297567584, 133534000000
-0.06120861427135863, 0.11316977990721097, 0.6525772362827226, 133539000000
0.007462171453063066, 0.2694174779695959, 0.6530663304118579, 133544000000
-0.146041293630989, -0.05483169947474697, 0.6536051820035566, 133549000000
-0.051480644615540735, 0.13074880666746927, 0.6542285628755478, 133554000000
0.017955256595964114, 0.22679067069892142, 0.6537956951078198, 133559000000
-0.14267429981943866, -0.019566771132372256, 0.6534873959961827, 133564000000
0.042447012652501434, 0.24157894218688522, 0.6531760319351845, 133569000000
-0.13998294368927044, 0.050035620761647435, 0.6520501337121377, 133574000000
-0.05231247340203958, 0.1405744471107333, 0.6515223357105769, 133579000000
0.026302294185842415, 0.22452357226342765, 0.6502687824802169, 133584000000
-0.15948177569581293, -0.028523947512672555, 0.6494955515012765, 133589000000
-0.051787393336627435, 0.0955230333203096, 0.6487461436661086, 133594000000
-0.03185661730343506, 0.11102128822233881, 0.6475044075966052, 133599000000
-0.07926990659257971, 0.08341426641723922, 0.6469112355499244, 133604000000
0.01714895041795598, 0.24912142027264894, 0.6461664642243067, 133609000000
-0.17494279097149673, -0.061698649785270884, 0.6462067319627015, 133614000000
-0.061206314830048084, 0.11933485460990058, 0.6460792110918637, 133619000000
0.02068842171018965, 0.24038276875784262, 0.6462105618300903, 133624000000
-0.13156536172219785, -0.018479559623140893, 0.6470009431808698, 133629000000
0.018777000247240837, 0.20744078141558164, 0.6471534636108781, 133634000000
-0.13910577157813073, -0.030914252580059202, 0.6477452336751912, 133639000000
-0.07002786560522777, 0.11913128807613163, 0.6485631046654681, 133644000000
0.047607196235008795, 0.21991041679927756, 0.6485785728678757, 133649000000
-0.13179360513388702, -0.007221446834263248, 0.649580950648027, 133654000000
-0.053713998465887314, 0.10698753651200066, 0.6501162714918809, 133659000000
0.027077920346167843, 0.21223021622094732, 0.6493585309280903, 133664000000
-0.1398120683348008, -0.06732308230102199, 0.6489372376441904, 133669000000
-0.07844308587973928, 0.13474774530059502, 0.6484341765516792, 133674000000
0.03852898487720721, 0.2419312043185401, 0.6473808214462289, 133679000000
-0.1559531063700156, -0.047297512456027826, 0.6465627616055178, 133684000000
-0.043081401227507574, 0.13220235423885737, 0.6460302999509682, 133689000000
-0.06118578890892977, 0.1456302265876396, 0.6450095604919285, 133694000000
-0.05166231625726243, 0.08114292096330285, 0.6439142948761716, 133699000000
0.0031615323503634066, 0.2291100182059442, 0.6433483026407553, 133704000000
-0.12286861091552316, -0.006709524018220014, 0.6425298090928238, 133709000000
-0.041608337971778875, 0.1201675121234795, 0.6428141251691508, 133714000000
0.03272501021939969, 0.22871895324535738, 0.6420944788491214, 133719000000
-0.16000669992299946, -0.04080276100400906, 0.6426399489761632, 133724000000
-0.05397938141062696, 0.11703201392836148, 0.6428612837461747, 133729000000
0.0420511098832646, 0.24587241681304084, 0.6429089059552826, 133734000000
-0.15913597527937925, -0.02148210076937793, 0.6431353556718448, 133739000000
-0.0695623394712518, 0.10769286277802953, 0.6439036255801975, 133744000000
0.03743897278178892, 0.18537938870743165, 0.6440309283074561, 133749000000
-0.1168130788503969, 0.016023307187152502, 0.6450729695595685, 133754000000
-0.07441886024364822, 0.1252384978048498, 0.6453885969601378, 133759000000
-0.04527063518058019, 0.12504634810736343, 0.6454925228871916, 133764000000
-0.06763646687772316, 0.09436512932718817, 0.6450674772781406, 133769000000
-0.03992807336245369, 0.11141266111511287, 0.6443410224785548, 133774000000
-0.05252090086745033, 0.13911303501849356, 0.6437161698592464, 133779000000
-0.06996850446148763, 0.11297152055957166, 0.642506621257343, 133784000000
0.0035519794155329763, 0.22259301995595132, 0.6417760341208145, 133789000000
-0.15444294218012558, -0.024596574396260198, 0.6404152345667953, 133794000000
-0.09154506416056957, 0.09918561215071217, 0.6397058042924165, 133799000000
0.003574300671498703, 0.20899328589970645, 0.6394778945224227, 133804000000
-0.11825095332642736, -0.039260200199725655, 0.6383921889550379, 133809000000
-0.04617547462037483, 0.11443219655984278, 0.6384336333035526, 133814000000
0.044572562388565266, 0.24375716069727918, 0.6383864262834397, 133819000000
-0.13573393791455854, -0.04547807045256003, 0.6383457893492714, 133824000000
-0.057987745597045774, 0.11538574638591392, 0.6382302770804835, 133829000000
0.036334182844796864, 0.2656710561719245, 0.6385877752630751, 133834000000
-0.13013574433619418, -0.0245311886868883, 0.639477032181091, 133839000000
-0.04936244071709047, 0.10009824388157461, 0.6398058208478314, 133844000000
0.012651894989141967, 0.2406071480983033, 0.6400845705401712, 133849000000
-0.13837006305013874, -0.03407098131620834, 0.6409123573404163, 133854000000
-0.052422643760012, 0.1004377107677922, 0.6414077012593208, 133859000000
0.03237309120499825, 0.22806032606004495, 0.640951528551795, 133864000000
-0.14989946406261342, -0.042867133376384446, 0.6409170965765241, 133869000000
-0.054844763253249815, 0.12089188640971682, 0.6407278107571479, 133874000000
0.04794647919834616, 0.21413693442327494, 0.6395982612872014, 133879000000
-0.1500420470997146, 0.0031579439009754157, 0.6390391924742136, 133884000000
-0.031856465648985394, 0.14245248259573448, 0.6383316425953265, 133889000000
0.03037553538680942, 0.20763940488163762, 0.637049346514912, 133894000000
-0.18291927176840397, -0.004808322309169686, 0.6360299966298701, 133899000000
-0.036831514904731216, 0.1130481730478677, 0.6359950342078565, 133904000000
0.0307841793723825, 0.2058334669168448, 0.6346396878415674, 133909000000
-0.1405945168744161, -0.007296272750486696, 0.6345471163153527, 133914000000
-0.055657861226325864, 0.12418392665798605, 0.6348363779776147, 133919000000
-0.06779746955601602, 0.11752016487687471, 0.6341041764604629, 133924000000
-0.06496492726162821, 0.0751137447353703, 0.6347211907852118, 133929000000
0.04897175752874607, 0.23686293121415125, 0.6345090534147698, 133934000000
-0.11856599392465954, -0.0016957368035182422, 0.6348211795271157, 133939000000
-0.08286400110048697, 0.11598820512345305, 0.635428960942052, 133944000000
0.0036571351127548044, 0.20073150788038122, 0.6361175176045364, 133949000000
-0.14382069245574639, -0.03537148321700002, 0.6364986635504483, 133954000000
-0.07910871936754604, 0.09571255148510835, 0.6371578780292241, 133959000000
0.03254132519401506, 0.21572820506220822, 0.6372328419672998, 133964000000
-0.14798767805924157, -0.019291548963262226, 0.636800737633655, 133969000000
-0.06687815352698363, 0.10191910729302817, 0.6370256362820128, 133974000000
0.02574841638498902, 0.20032995447779456, 0.6360207304794049, 133979000000
-0.1453297463898299, -0.01750934914589733, 0.6355899557514063, 133984000000
-0.055570189541696104, 0.11153860535575123, 0.6345304486772689, 133989000000
-0.03881816921152318, 0.1218713943475946, 0.633470791402495, 133994000000
-0.06868319716785028, 0.08875457814782074, 0.6326872494427187, 133999000000
0.04509605840125788, 0.22599326095219, 0.6320827484209633, 134004000000
-0.1356639901142935, -0.022793378643063734, 0.6310635944176473, 134009000000
-0.014094092203604587, 0.10881135559719145, 0.6306308712271635, 134014000000
-0.0041356915120737, 0.22968667068548623, 0.6302623931309933, 134019000000
-0.15634804587780404, -0.03407420715361178, 0.6300565394897053, 134024000000
-0.034521229162416844, 0.0946266163312043, 0.6306588111937192, 134029000000
0.044649504262292486, 0.2180915926270137, 0.6304658005406107, 134034000000
-0.12552591404987462, -0.0006787252392013287, 0.6307160663196936, 134039000000
-0.046709318981842725, 0.14704524984034179, 0.6316391524108527, 134044000000
-0.057184951031126044, 0.08069780697792453, 0.6317806896287677, 134049000000
-0.04628642811753169, 0.09858456416348038, 0.6322616558609611, 134054000000
0.021468080777963493, 0.24901854964489784, 0.6328718676840611, 134059000000
-0.19881362532623403, -0.05586832971938223, 0.6330498684858449, 134064000000
-0.02175892922463963, 0.1309295927914101, 0.6334727243169039, 134069000000
0.0946451124857141, 0.22993409619617905, 0.6329100292928239, 134074000000
-0.14517796639566796, -0.02586761862661957, 0.6320881015617207, 134079000000
0.03243289422890656, 0.22177040389471633, 0.6319659507002686, 134084000000
-0.11577730156428126, 0.007171942750247871, 0.6304377286904318, 134089000000
-0.0731117073048132, 0.14137962557291392, 0.6300971106159373, 134094000000
0.011486834576851668, 0.25451382336570455, 0.6287306294027112, 134099000000
-0.12992137767845197, 0.00776381046204316, 0.6282661354330216, 134104000000
0.017026909740849146, 0.17415557688412714, 0.6272492748666987, 134110000000
-0.10715059907753506, -0.006533349712473249, 0.6265622754710596, 134115000000
-0.05251673654830006, 0.12298813405398562, 0.6268619372732522, 134120000000
0.0156781446367004, 0.2386752862063477, 0.6261851250738095, 134125000000
-0.14189455161190256, -0.008886020301030475, 0.6264746486398703, 134130000000
-0.037912322504082496, 0.1282136341605794, 0.6269007409096362, 134135000000
-0.03495996642416481, 0.0886395061173611, 0.626535889960368, 134140000000
-0.07524458438202328, 0.11189045717624597, 0.6272461994403866, 134145000000
0.04511723364928297, 0.2549439512768022, 0.6274700473914485, 134150000000
-0.11235653091964817, -0.025841778879149367, 0.6279598704476809, 134155000000
-0.04960475340794962, 0.12032321068058655, 0.6285168529321781, 134160000000
-0.06048084926291464, 0.10265384185401755, 0.629041594719053, 134165000000
-0.062182186068415295, 0.13440875533802626, 0.6290233811154341, 134170000000
0.010458731695131018, 0.22462310720752626, 0.628687300592937, 134175000000
-0.11966275017916511, -0.0031244763820221354, 0.6283012541923007, 134180000000
-0.03890665194862928, 0.11397921963384178, 0.6276701099201313, 134185000000
0.015363240938823991, 0.20867683991819286, 0.6269305638690879, 134190000000
-0.14676448768450648, -0.010308686663276945, 0.6261481964223496, 134195000000
-0.07094837627179873, 0.10954348698733492, 0.6254441164208641, 134200000000
-0.0555215223869285, 0.10261893231074845, 0.6242967348294814, 134205000000
-0.05286361894469697, 0.08088340442352375, 0.623821071198601, 134210000000
0.010867997659972692, 0.23550300599643803, 0.6228642301859911, 134215000000
-0.12667991990929137, -0.030585068720828893, 0.6225078153600223, 134220000000
-0.03812878295451682, 0.11346329777705254, 0.6225564601982103, 134225000000
0.03546363622838511, 0.2053985068985122, 0.6222430709680802, 134230000000
-0.13007306769418533, -0.005302867653295955, 0.6223002952675519, 134235000000
0.02668762396993002, 0.2377519589635046, 0.6227196133979584, 134240000000
-0.12254920493621468, -0.008474507023570712, 0.6234349475685994, 134245000000
-0.06168910621691157, 0.12509652022211085, 0.6236842564961108, 134250000000
0.040082513444192225, 0.22335088345872164, 0.6240462440588145, 134255000000
-0.11226294951216409, 0.0015986128078175656, 0.6248126599385639, 134261000000
-0.04980297085105787, 0.10348756420548655, 0.625048914543602, 134266000000
0.024319625377200643, 0.26387248219881465, 0.6250713152581086, 134271000000
-0.12975628370702855, 0.021278176013836594, 0.6250409277937965, 134276000000
-0.03805246696700517, 0.1243432079594689, 0.6254154518680201, 134281000000
0.054163424762289955, 0.20860882324276359, 0.6236827696794139, 134286000000
-0.10565582332777852, 0.019770159058209634, 0.6232843307402787, 134291000000
-0.024609625244446744, 0.08689706034817987, 0.6226016883324348, 134296000000
-0.06664858435893707, 0.12756982075535417, 0.6212421500464748, 134301000000
-0.07112922702202897, 0.07394676134807536, 0.6209251894781845, 134306000000
-0.0019487051886224738, 0.18716817406915628, 0.6199006674538049, 134311000000
-0.10745449939549902, 0.0033462492366767883, 0.6193661538355713, 134316000000
-0.059476682891292695, 0.09968151940567056, 0.6186848825926579, 134321000000
0.010697367218193587, 0.2693794523754424, 0.6181052580648204, 134326000000
-0.1482379496195936, -0.03407267080821944, 0.6183187327359829, 134331000000
-0.08658046968508049, 0.13130995563536838, 0.6187973236347588, 134336000000
0.014500288957819211, 0.22302158475120298, 0.6186200908300382, 134341000000
-0.153322075649186, -0.022475861149333403, 0.6191389932052903, 134346000000
-0.020123197112493656, 0.11667616208622492, 0.6195745179834071, 134351000000
0.021811630840483816, 0.2168261843911864, 0.6196245020758622, 134356000000
-0.1465712849196921, -0.013416613510037922, 0.6205380791117117, 134361000000
-0.06383658450608384, 0.13621247970313796, 0.6212078101298564, 134366000000
-0.04243409536103887, 0.11089581967953913, 0.6213974591425864, 134371000000
-0.08484231603448358, 0.08353451653024704, 0.621070137781373, 134376000000
0.0269620256891527, 0.19182982152773126, 0.6204949070656282, 134381000000
-0.12091407646435078, -0.011087194511490794, 0.6200644863135506, 134386000000
-0.043073504690137654, 0.10790075875533352, 0.6198789733814799, 134391000000
0.017474451439903078, 0.21577886037506713, 0.6184260686879962, 134396000000
-0.15937377554188317, -0.02970615325612604, 0.6179393757314949, 134401000000
-0.06175429698015712, 0.10614447737637939, 0.6169516275015539, 134407000000
0.04600230084686534, 0.25329764840068075, 0.6159459996314521, 134412000000
-0.11832161539104907, 0.021452645801490387, 0.6156923446905739, 134417000000
-0.05011708097915283, 0.09191942517789362, 0.6149662794088901, 134422000000
-0.0789930153416373, 0.11283090777704725, 0.6147140384957276, 134427000000
-0.06430415255101626, 0.04316342493397252, 0.6146882675260583, 134432000000
-0.04825912639166226, 0.1366342808459194, 0.6149863386237524, 134437000000
-0.03560872850130414, 0.0773029882416354, 0.6145908569119128, 134442000000
-0.060385658891161105, 0.12669669154308685, 0.6145795422023266, 134447000000
0.04437590708314487, 0.21961724446910774, 0.6136529351820326, 134452000000
-0.11213595153412287, 0.02229418752793795, 0.6133454560235462, 134457000000
-0.05328090195362636, 0.10342941081234817, 0.6135983592607676, 134462000000
0.003696382581735533, 0.22794629368463848, 0.6130927266746684, 134467000000
-0.138159971027613, -0.02889401640831906, 0.6127103492084346, 134472000000
-0.055423301373423335, 0.12520435068721708, 0.612849958953618, 134477000000
-0.06679322333124205, 0.07693501382010937, 0.6124882533697095, 134482000000
-0.07708781757311937, 0.11249047297941366, 0.6125273475750014, 134487000000
-0.07229772196686331, 0.1275997561834611, 0.6127029006535313, 134492000000
-0.043239162964096384, 0.09926352490979866, 0.6122976677465641, 134497000000
-0.04114424665106396, 0.14290722621036708, 0.6126201729505214, 134502000000
0.0008203358488108065, 0.19136157540477755, 0.6132460119345531, 134507000000
-0.16696920720067546, -0.024159759885135072, 0.6128019924898163, 134512000000
-0.05548110143972747, 0.12465064032211964, 0.6129360372741314, 134517000000
0.021102967345364026, 0.2105363204491297, 0.6133652144917627, 134522000000
-0.15014718401272875, -0.03792557469989917, 0.6130467361870608, 134527000000
-0.06685261629203537, 0.08160866205719183, 0.6140804155862533, 134532000000
0.02800848958845015, 0.19180016285490567, 0.6136357133089173, 134537000000
-0.12097467857989151, -0.010434442505819659, 0.6136248004166264, 134542000000
-0.054611609289262855, 0.10160845838131242, 0.6132856942219206, 134547000000
-0.00803544404893689, 0.17862629871040814, 0.6122314000003137, 134552000000
-0.10069648793657718, -0.02828788139701161, 0.6118629458267578, 134557000000
-0.0541742076483246, 0.12243905217922574, 0.6110268328131041, 134562000000
-0.03495390220469867, 0.11828440237094867, 0.6097809680354748, 134567000000
-0.08123639394936402, 0.10825945187648983, 0.6097316370141156, 134574000000
0.016624545220905333, 0.1805160774816123, 0.6082970373987024, 134579000000
-0.14325321099345176, -0.004943026098674462, 0.6076194213084805, 134584000000
-0.01929151544433247, 0.11524107414408626, 0.6075772078739272, 134589000000
-0.03717862946989037, 0.0991161954168547, 0.6070460300436932, 134594000000
-0.060349114416179316, 0.09735402310956275, 0.606928013321902, 134599000000
0.026258373411922966, 0.2159616030083215, 0.6073146903185309, 134604000000
-0.13948993326478237, -0.0684150831649851, 0.6076219246410737, 134609000000
-0.015655577959628686, 0.12845095053220865, 0.6080480067113532, 134614000000
-0.02190549793476304, 0.25137819569065745, 0.6086767836882497, 134619000000
-0.16979526927287475, -0.004916168887321635, 0.608797066893678, 134624000000
-0.05271911972178038, 0.08600585711223069, 0.6098537808449539, 134629000000
0.02299235639794785, 0.20328016783256525, 0.6095995464773234, 134634000000
-0.12551531963978743, 0.002880147929815182, 0.6101812822683435, 134639000000
-0.06256591148799782, 0.13582610117803817, 0.6104894135899241, 134644000000
0.015946409865907202, 0.22913842196564504, 0.6101051461237712, 134649000000
-0.15984669779246494, -0.008999592000879558, 0.6096554248892839, 134654000000
-0.06991647238969062, 0.0869229703379841, 0.6091069492134411, 134659000000
-0.07658069293437708, 0.10968215457185725, 0.6082154026416718, 134664000000
-0.04691371222722509, 0.09367301961858435, 0.6072368317261185, 134669000000
0.018462648325783974, 0.23599444009963222, 0.60621542840405, 134674000000
-0.13231547391695408, -0.014891352462075291, 0.6055048970855105, 134679000000
-0.03873064618867783, 0.13093636810237763, 0.6051214225379389, 134684000000
0.04398151456262232, 0.22293334004986037, 0.6038170818249032, 134689000000
-0.14476059290822751, 0.010076770179592673, 0.6035880141695509, 134694000000
0.020766816776337776, 0.20544505182498116, 0.6036135847113053, 134699000000
-0.13173690959197148, 0.017378617142677327, 0.6028783866204493, 134704000000
-0.04820289043885341, 0.10514350501122771, 0.6035090751706544, 134709000000
-0.0003584421932939473, 0.21684431670462265, 0.60349567311288, 134714000000
-0.11209027810220544, -0.0260565491972675, 0.6037006081739628, 134719000000
-0.0438083010268687, 0.11273088759799355, 0.6048954093505303, 134724000000
-0.007965059183460084, 0.10937256522566892, 0.6048677053971933, 134729000000
-0.05881884015522916, 0.10307460152027606, 0.6056255314769902, 134734000000
0.012298140531240407, 0.21729198162269966, 0.6060893905103905, 134740000000
-0.10914799519327187, -0.030575806969454153, 0.6063789400018399, 134745000000
-0.04668474328699139, 0.10465824751150433, 0.6063738418858874, 134750000000
-0.020672843881441087, 0.08135172907877665, 0.6059205494976145, 134755000000
-0.0732143105008444, 0.07540249749549253, 0.6057901536669867, 134760000000
-0.005196223370100193, 0.21463669370250274, 0.6045946988291789, 134766000000
-0.12286907806186118, -0.005068780110474704, 0.6037410541663726, 134771000000
-0.0816011473947077, 0.08481762774862688, 0.6031578701841293, 134776000000
-0.03229518545916137, 0.135083996007759, 0.6022726197153735, 134781000000
-0.0661279176301366, 0.0997070227905286, 0.6019571923274651, 134786000000
0.03208015622443296, 0.2105570546418176, 0.6006106216601015, 134791000000
-0.1574183380846817, -0.0020211248864007644, 0.6005187747601617, 134796000000
-0.04124876371465792, 0.08679230653424132, 0.5997998787265271, 134801000000
0.045592140268132006, 0.19743681165883678, 0.6000333344257993, 134806000000
-0.11726560160423907, -0.022113017953171, 0.5999148350010512, 134811000000
0.022879948927851546, 0.18759883326322568, 0.6003589249557355, 134816000000
-0.0968405912307669, 0.01165495693573336, 0.6001650871692115, 134821000000
-0.049990082946317155, 0.12032195132938027, 0.6010981674897501, 134826000000
0.024751565349899102, 0.21990634758876557, 0.6012993667434324, 134831000000
-0.11991124899138386, -0.032443468266319414, 0.602111471212287, 134836000000
-0.04376853052147684, 0.12213650028491774, 0.6022891883005437, 134841000000
0.017472772752704833, 0.24556173138782933, 0.6023252571759857, 134846000000
-0.13686406603597479, -0.02198740431144372, 0.6023993082482075, 134851000000
-0.03041375929232775, 0.10423683213859063, 0.6024926439450047, 134856000000
0.014272366199565751, 0.24219240676191697, 0.6019873092364185, 134861000000
-0.12440968343286453, -0.019207099215251502, 0.6011074224757003, 134866000000
-0.04272544709985649, 0.06969080736009008, 0.6007772912013933, 134871000000
-0.0439831560953022, 0.12810137712439612, 0.5994030390733519, 134876000000
-0.077122232422756, 0.105123306593386, 0.598904156683707, 134881000000
0.004363615519571526, 0.19287996526407897, 0.5983622850172238, 134886000000
-0.13796053670641717, -0.016305048618046145, 0.5975206351257276, 134891000000
-0.04962236802958166, 0.1384179212261535, 0.5970028617275263, 134896000000
0.01278383703601884, 0.2067288382835047, 0.5966102357615838, 134901000000
-0.1295102323075711, -0.029175125579154828, 0.5962680794917407, 134906000000
-0.01703264827355222, 0.1296658590527339, 0.5965712678652264, 134911000000
0.003046998058203649, 0.20039535335869257, 0.596221175039355, 134916000000
-0.1677584413583978, -0.0549712111628664, 0.5965157687090619, 134921000000
-0.06320551019997442, 0.11666925786240498, 0.5973910185989253, 134926000000
-0.056393536781547036, 0.11466107773785118, 0.5971165424703323, 134931000000
-0.08726051938372409, 0.07310236463178627, 0.5982316734567461, 134936000000
0.03872929156374516, 0.198187844323628, 0.5988444763257599, 134941000000
-0.11788785041212456, 0.011968758848020183, 0.598733905051375, 134946000000
-0.059174154755028595, 0.12215264621892225, 0.5990496572530167, 134951000000
0.04125600085937441, 0.19712560341410731, 0.5987888111241237, 134956000000
-0.10937002426884432, -0.003902264000697814, 0.5979768683169508, 134961000000
-0.08594335463237007, 0.09404174001303955, 0.5979587002005458, 134966000000
0.01989132818534868, 0.20649362229366097, 0.5966688478323546, 134971000000
-0.12671487750334462, 0.013287415116932565, 0.5961502162830032, 134976000000
-0.0564881729849219, 0.09907403289150463, 0.5954549317026847, 134981000000
0.01491280750669857, 0.21448384389565656, 0.5948615486545238, 134986000000
-0.1416028872696897, -0.04716173713431995, 0.5941924366545953, 134991000000
-0.012124493162641425, 0.19329665248188252, 0.5935432956960625, 134996000000
-0.14068341895554412, 0.03521254895621894, 0.5927219869075834, 135001000000
-0.040621235889450526, 0.13205441672001894, 0.59273447021695, 135006000000
-0.012225261398272739, 0.20283551626982277, 0.5927755079352215, 135011000000
-0.13041541830777537, 0.002761805831575148, 0.5928995284712222, 135016000000
-0.03297795678886639, 0.13951483155863037, 0.5936001890384393, 135021000000
0.00782366289971309, 0.20374696522875071, 0.5931509502568244, 135026000000
-0.11615124692654417, 0.0008774473975740829, 0.5938688076262999, 135031000000
-0.05125267057994604, 0.11918150452993154, 0.5943547461109732, 135036000000
0.007419666017887067, 0.19266035496296036, 0.5948764304727844, 135041000000
-0.1526823132142061, -0.0417592569390651, 0.5949519006234274, 135046000000
-0.05240858910007464, 0.11503112341631554, 0.5956666131668391, 135051000000
-0.057581490315018406, 0.08448041693269406, 0.5953713024682004, 135056000000
-0.0356775018316496, 0.06863963542250748, 0.5953280729737681, 135061000000
0.010452609478090777, 0.17780632304617772, 0.5945205241354248, 135066000000
-0.14625407243907346, -0.05250259343597332, 0.5936864998935788, 135071000000
-0.045499752282563165, 0.1169154032863795, 0.5930198505939138, 135076000000
0.007222543806613893, 0.21733629394174303, 0.5920792501582267, 135081000000
-0.14871621203723384, 0.00480787465846063, 0.5913408811893051, 135086000000
-0.06664557892119564, 0.12422481325427491, 0.5906533536583075, 135091000000
0.00827994956966894, 0.2273889016748522, 0.5900953419683995, 135096000000
-0.12750252537020557, -0.0555665575296449, 0.5895826345551337, 135101000000
0.010013662868139279, 0.204098492621132, 0.5896025900448232, 135106000000
-0.1202433739418387, -0.04372840553784687, 0.5893502570715222, 135111000000
-0.050991610087550016, 0.11647792313602329, 0.5895133444302536, 135116000000
0.03110255506689472, 0.18105118872751652, 0.5893153374152232, 135121000000
-0.1493996240769815, -0.028711395806400718, 0.5897868228161957, 135126000000
-0.04555612378499783, 0.10208936038043089, 0.5898440716144007, 135131000000
0.017403137973962004, 0.19201815439023387, 0.5903695328325115, 135136000000
-0.13937852331310938, -0.028207939485488984, 0.5911443193719123, 135141000000
0.007905288886788243, 0.19686331329217807, 0.5912283900243546, 135146000000
-0.07713400815713942, -0.0399976618136434, 0.5916770214543265, 135151000000
-0.07951071662130701, 0.09688293228387762, 0.5916108765035671, 135156000000
0.003693647232094234, 0.21541180909175447, 0.5916792678752665, 135161000000
-0.10700010896113127, -0.0015219831393964434, 0.5910859834492452, 135166000000
-0.09232662579925788, 0.09028557203706697, 0.5904993399434819, 135171000000
0.012181389664320228, 0.21593455782750454, 0.5898476890834471, 135176000000
-0.149622933394917, -0.01189109062536681, 0.588830647406104, 135181000000
-0.050907544176975655, 0.07968582786375841, 0.5884469305203155, 135186000000
-0.06709731492281483, 0.13568056698749079, 0.5873883034295112, 135191000000
0.03338375293195761, 0.22362827049072737, 0.5869991134811919, 135196000000
-0.13557534817840255, -0.026329579149590054, 0.5862987675036525, 135201000000
-0.027546388296181445, 0.10238707413896857, 0.5862297873907286, 135206000000
0.005674332472993548, 0.18459526531898932, 0.585400816985985, 135211000000
-0.147498612646369, -0.020705937604930297, 0.5860090342648316, 135216000000
-0.04736203597901327, 0.10058402824201863, 0.5857746302820075, 135221000000
0.011966601968710563, 0.19702669992724273, 0.585955951246254, 135226000000
-0.11092473029828534, -0.036013641913075684, 0.5865934068353138, 135231000000
-0.038182531926174976, 0.0858391653243672, 0.5871092067400259, 135236000000
0.037263389749211305, 0.21892857921341383, 0.5874751234824418, 135241000000
-0.11255842223443586, -0.034087526218142636, 0.5875852249688082, 135246000000
-0.06172741151883128, 0.09498300191206754, 0.5882722252708286, 135251000000
0.002897287868347413, 0.21065604024105983, 0.5885433232768869, 135256000000
-0.11863288927969719, -0.017727436077716163, 0.5879423293870601, 135261000000
-0.06336695409122461, 0.09815250493355243, 0.5877117557509122, 135266000000
0.0023936619200361914, 0.20066668994251607, 0.5878011715360223, 135271000000
-0.13732051774245965, -0.028204229951801368, 0.586529861094702, 135276000000
-0.07183358514555915, 0.13702489799796033, 0.5864263692107458, 135281000000
0.039610893828716257, 0.20049670119747257, 0.585153850863511, 135286000000
-0.15313523478046273, -0.016963855060313414, 0.5841115033439362, 135291000000
-0.050384580509799125, 0.10865947961486454, 0.5839375116089544, 135296000000
-0.012377250936106927, 0.21542316532772454, 0.5831174162975931, 135301000000
-0.12986736956679226, -0.004778582692990658, 0.5826272147335173, 135306000000
-0.07330950508971956, 0.07803096761604547, 0.5827384323721655, 135311000000
-0.050669959172822104, 0.0965026974065165, 0.5821320812897706, 135316000000
-0.04645223487176715, 0.08390108445873368, 0.5825552876896112, 135321000000
0.003698274941518871, 0.23257700879339097, 0.5825959558925085, 135326000000
-0.12724724375880883, 0.005194629347898109, 0.5829359200058877, 135331000000
-0.06802804448965315, 0.06642849145808424, 0.5834068236045773, 135336000000
-0.018965786297363493, 0.190557524931189, 0.5838780379124534, 135341000000
-0.14434464400013935, -0.023565407652288036, 0.5840691716645746, 135346000000
-0.05421707976822892, 0.11911425663375028, 0.5844552105695521, 135351000000
-0.05018724992498994, 0.09997782148606786, 0.5849879499059769, 135356000000
-0.0763074716528631, 0.08940496642538566, 0.5851767570059357, 135361000000
0.013228662402499758, 0.19284754001769416, 0.5845996941828963, 135366000000
-0.1147721751291709, -0.022611352320787724, 0.584386467003641, 135371000000
-0.05500165113076065, 0.08971462301686961, 0.5837400933198783, 135376000000
0.0130488606176636, 0.16576896009916106, 0.5827608253661156, 135381000000
-0.1436342381877412, -0.039571304949949676, 0.5823767892211233, 135386000000
-0.0517244033079166, 0.12765416046137545, 0.5812506929002063, 135391000000
0.00668370128167604, 0.22194927687466098, 0.5805417014446326, 135396000000
-0.13156149687149013, -0.05328285738993636, 0.5796947886538883, 135401000000
-0.03693358789759649, 0.10067404600995196, 0.5796578295441763, 135406000000
-0.04421485618366262, 0.10923665580984447, 0.5793092438720704, 135411000000
-0.052125728365013196, 0.06649235351176669, 0.5792683249623829, 135416000000
-0.0025611994703633994, 0.17800736500718506, 0.578788085497572, 135421000000
-0.13094841782125952, -0.014308122469177292, 0.5793920172087297, 135426000000
-0.05379796523650048, 0.06778875732703926, 0.5791478097077539, 135431000000
-0.004040159371051214, 0.18645839067833406, 0.5795089354003855, 135436000000
-0.14033322084320085, -0.02711322484725425, 0.5799979057346563, 135441000000
-0.08068115200780013, 0.09488736115242645, 0.5808990260833712, 135446000000
0.016131944208628336, 0.24684002453050424, 0.5812040975134253, 135451000000
-0.14529353139043114, -0.0027033542740339134, 0.5813242397214506, 135456000000
0.0312775463545415, 0.2013554533953366, 0.5815297059212482, 135461000000
-0.12106301845987559, 0.0010721754414237308, 0.5814094379573614, 135466000000
-0.04610286663725599, 0.13041332360515864, 0.5809553794625822, 135471000000
-0.012363901353985338, 0.21844026747147094, 0.5807132802636201, 135476000000
-0.140255118279219, 0.003088006287666402, 0.5795649413548019, 135481000000
-0.0569518120748366, 0.10370865115569712, 0.5789084763563629, 135486000000
-0.051860889874851775, 0.10243770050893951, 0.5780681473386361, 135491000000
-0.0747902322892832, 0.04984133347359457, 0.5777368663053577, 135496000000
-0.061397799754096205, 0.09515681940532814, 0.5770183204603293, 135501000000
-0.07912906020855298, 0.10874140546046983, 0.576053774955711, 135506000000
-0.0560759132648219, 0.0652606380113085, 0.576443016871311, 135511000000
0.01591360063053661, 0.23909125086763663, 0.5757773750313109, 135516000000
-0.0713777247696182, 0.013341720324768479, 0.5755493670453868, 135521000000
-0.09086114204173597, 0.07350221894017131, 0.575616959172645, 135526000000
0.020302946290659943, 0.20607003436352675, 0.5759414780208473, 135531000000
-0.14420564144187725, 0.013793184326795056, 0.5759195176458163, 135536000000
-0.05569722786599179, 0.10597162151085487, 0.5767242237563124, 135541000000
0.004792167876792163, 0.23179728798577445, 0.576807070581028, 135546000000
-0.13335518021181117, -0.019179126831255274, 0.5772386112615631, 135551000000
-0.025856683615289287, 0.08493440057489511, 0.5782585264001558, 135556000000
0.01956194261551236, 0.22836844097628678, 0.5782444858939823, 135561000000
-0.12981609790730234, -0.018668128835621772, 0.5783527528940461, 135566000000
0.02174656566783287, 0.19327239321298087, 0.5780284150910463, 135571000000
-0.13970992247104394, -0.001250983285258243, 0.5772525272404335, 135576000000
-0.023959916659726563, 0.11648031151941449, 0.5768408022761831, 135581000000
0.006556657964791712, 0.19525078867244317, 0.5758412802882041, 135586000000
-0.11903452493804648, -0.011363640444296167, 0.5752227138677561, 135591000000
-0.06108822024307344, 0.08594925948047372, 0.574791685848604, 135596000000
-0.05931993903126513, 0.11671348817470631, 0.5737133228385632, 135601000000
-0.08784451060253748, 0.09506603576655391, 0.5733811404046656, 135606000000
-0.0022740192943125973, 0.22797018225234061, 0.5727469417477542, 135611000000
-0.14880993900982772, -0.024601653555395973, 0.5728013710426462, 135616000000
-0.06796688698431107, 0.09256894578853696, 0.5726802621973093, 135621000000
0.034190898341437834, 0.16500567863619936, 0.5717136109683503, 135626000000
-0.14402876730289535, -0.02355190293283748, 0.5723308781731049, 135631000000
-0.003983175023469711, 0.19803558345782846, 0.572422828165472, 135636000000
-0.1179905744011791, 0.0021181211267777417, 0.5717718827551411, 135641000000
-0.06266491781697113, 0.10150796101473315, 0.5716849234896264, 135646000000
-0.001443044573359478, 0.18781125949257524, 0.5713204664523965, 135651000000
-0.18134519278940933, -0.038567747976251184, 0.570593330531905, 135656000000
0.023428644564101212, 0.18193543964932438, 0.5704256686457087, 135661000000
-0.11335053307092373, -0.03158487025848407, 0.5707118260576716, 135666000000
-0.054933159459434965, 0.06061325024331399, 0.5706569521455664, 135671000000
0.04973750271917414, 0.2106703405997269, 0.5707023059182762, 135676000000
-0.12660269055864543, -0.015919803807957066, 0.5708143393391567, 135681000000
-0.051810099690964985, 0.14750189703686467, 0.5708660380484544, 135686000000
-0.015485707298793835, 0.18600437888244098, 0.5702643401057657, 135691000000
-0.135122102431302, -0.00526724221003058, 0.57078077708885, 135696000000
0.002160321228009352, 0.1971937748662242, 0.5710772155439776, 135701000000
-0.11870346335523518, 0.007062860384415686, 0.570641086908961, 135706000000
-0.052474756735181996, 0.113550745909014, 0.5710909561601603, 135711000000
0.010061125736961087, 0.20900388859832025, 0.5712133591911494, 135716000000
-0.11569112693769842, -0.05197973075032151, 0.5718728023094665, 135721000000
-0.006997507296842696, 0.11897410977015199, 0.5720012901786644, 135726000000
-0.03689545504420812, 0.12287097688813522, 0.5716591817198122, 135731000000
-0.06317097664769177, 0.07952542461457028, 0.570957583508984, 135736000000
-0.010843772026426536, 0.20339342639467572, 0.5708472917382429, 135741000000
-0.14857867269381875, -0.004743667561434496, 0.5700369036288004, 135746000000
-0.04919036986008894, 0.11430866489592627, 0.569340729387028, 135751000000
-0.003286299890970675, 0.22552037427413552, 0.5685311899604983, 135756000000
-0.12145921794671483, -0.01452904987094052, 0.5676953020102251, 135761000000
-0.05810518793552829, 0.08490533054256909, 0.5673106620688169, 135766000000
-0.006965334921255385, 0.1984849055070649, 0.566841699696094, 135771000000
-0.15594278827113306, -0.00575758827135946, 0.5664458005650849, 135776000000
-0.06947444557781113, 0.06934412079522959, 0.5660098769686674, 135781000000
0.021158945220647013, 0.2240100564292887, 0.5659334883959859, 135786000000
-0.13431246812925351, -0.020623237391076125, 0.5661129717119663, 135791000000
-0.0390545417921722, 0.0696636767939471, 0.5662632290499795, 135796000000
0.009005045887878212, 0.21090912049683438, 0.5665264891842317, 135801000000
-0.11116042478662859, -0.005244548201203647, 0.5667309487590365, 135806000000
-0.06092975147860749, 0.10423507660855902, 0.5672986419227636, 135811000000
-0.006557541007513379, 0.22419716073280407, 0.5678606854233561, 135816000000
-0.11265224899034079, -0.02124330588759192, 0.5678328402789133, 135821000000
0.019247029058783345, 0.19114842701587553, 0.5687145947158713, 135826000000
-0.11534638801076257, -0.01382596497796908, 0.5685255371104769, 135831000000
-0.054832633452919166, 0.1169990690543946, 0.5685534277336672, 135836000000
0.010712228950963715, 0.20632325866461196, 0.568205572037042, 135841000000
-0.1079127696653121, 0.013567397328657492, 0.5677587571494132, 135846000000
-0.05834769013336934, 0.08300535816409986, 0.5675405773813254, 135851000000
0.03624005463005786, 0.1948740019013139, 0.5662768210555164, 135856000000
-0.11229243545600968, -0.030282330129992426, 0.5655131441481466, 135861000000
-0.04720549103327349, 0.09198141640062114, 0.564857832316679, 135866000000
-0.048162443706763536, 0.12361073298234274, 0.5634231827865797, 135871000000
-0.059885934096635104, 0.08157542806103578, 0.5634310467624013, 135876000000
0.021327310727920556, 0.20860355081531204, 0.563032838412676, 135881000000
-0.12201471738122525, 0.0033037721271629815, 0.5629129408921593, 135886000000
-0.022231500021161265, 0.09223851584945628, 0.5626692316285099, 135891000000
-0.022059743142614045, 0.1613575517541247, 0.5623024270779132, 135897000000
-0.13494793783027448, -0.025836262419914532, 0.5628395952077365, 135902000000
0.014202295385346096, 0.18618667536009498, 0.5629462450596655, 135907000000
-0.12247659484531195, -0.018812221453910025, 0.5633141739090485, 135912000000
-0.05400136525847626, 0.0857145239074183, 0.563831811308086, 135917000000
0.03636955692941596, 0.19190988748168752, 0.564386820479688, 135922000000
-0.14312566559991433, 0.01485628133812164, 0.5646086188862329, 135927000000
-0.025608991184034625, 0.09723027262050886, 0.5653991602033228, 135932000000
0.040333733753764, 0.1954495253512017, 0.5652125487683252, 135937000000
-0.11249578664870252, -0.028797223178389078, 0.5650081285833949, 135942000000
-0.05849428843564399, 0.08137144367324152, 0.5649952096275651, 135947000000
-0.046056234058144976, 0.12131475969574859, 0.5643745519501546, 135952000000
-0.036826212985182, 0.11497955742913799, 0.5638247763230229, 135957000000
0.010533542949115654, 0.20608063672621793, 0.5628341213676732, 135962000000
-0.11942336749406814, -0.00920902800782446, 0.5625073027041578, 135967000000
-0.057891645379531495, 0.102989574455299, 0.5613942452367466, 135972000000
-0.012402203961566775, 0.17429995064513348, 0.5607643660995206, 135977000000
-0.11475886080624761, -0.039363316009083604, 0.560157520293814, 135982000000
-0.06798329400975656, 0.11890677861744112, 0.5600360886226676, 135987000000
0.017516728039670353, 0.21467371290702092, 0.559766860084152, 135992000000
-0.09188458693753601, -0.028415696920121986, 0.5593709384541928, 135997000000
-0.01305509693541268, 0.09613371647554286, 0.559711291588226, 136002000000
0.0029744044973329786, 0.19266976364207447, 0.559619266914362, 136007000000
