acc_x, acc_y, angular_z, stamp, 
-0.05388390660579216, -0.004181197380670607, 0.0004453034258624377, 216439000000
-0.06300969312670755, -0.02322858599431172, -0.00028039586991676684, 216444000000
-0.05039386439451694, -0.025479531284778294, 0.00010062026943611006, 216449000000
-0.09241057657235305, 0.005079486327840246, 4.215051733811026e-05, 216454000000
-0.10050294467193806, 0.02131408865206016, -0.00028550570546232844, 216459000000
-0.05496276185299789, -0.004539499655466884, -0.0002562286446915058, 216464000000
-0.059519469313067556, -0.035610016259313655, 1.3792264092200061e-05, 216469000000
-0.07065097051302922, 0.03692964417542471, -6.40135410344221e-05, 216474000000
-0.07115306224587953, 0.013744045735636028, -0.0001451028999824609, 216479000000
-0.046937576721634885, 0.01926978954881294, 1.480118160397759e-05, 216484000000
-0.06639674379641897, -0.012934380688773848, -0.00024253133610244255, 216489000000
-0.05442862076116175, 0.0009422380479742887, 0.00024046404845252592, 216494000000
-0.056952265668118486, 0.010267383965836437, -0.00011029365221519358, 216499000000
-0.08365906169682458, -0.005496997326885665, 1.8190667472379888e-05, 216504000000
-0.044800642878025904, 0.0059716563102931745, 8.445108573934226e-05, 216509000000
-0.03002071371211767, -0.01163201162614957, -0.00027625342938067794, 216514000000
-0.07493342833639115, 0.033726498029521844, 0.00014181090971971896, 216519000000
-0.06550070857074347, -0.017251906506017455, -0.000108964897759857, 216524000000
-0.03035210740965162, 0.012138361618715603, -0.00027387409497237747, 216529000000
-0.04761373133092829, 0.012578591085179308, -3.0482558944066945e-05, 216534000000
-0.06025392907742645, -0.010704632794193196, -0.0002755659441895899, 216539000000
-0.0592051707981642, -0.04409994284384961, 2.1366734119745593e-05, 216544000000
-0.05042798037056508, 0.0004773562812017129, -0.00019945079008240772, 216549000000
-0.059799087150684015, 0.01160142365184537, 0.0001419622024162027, 216554000000
-0.06269103312017404, 0.022157216542784908, 0.00022825531449718455, 216559000000
-0.050679768124844864, 0.018244203288174565, 0.0004094054592621126, 216564000000
-0.07584310159376864, -0.014442600825194562, 0.0002710454903014952, 216569000000
-0.07730579849391869, -0.0132359494806364, 0.0002874554017921951, 216574000000
-0.07223182387503181, -0.03499970637267358, 2.2821178310724073e-05, 216579000000
-0.06969238445846435, 0.008298176630430986, -0.00015577399844056517, 216584000000
-0.04224244744089134, -0.019981969427490566, -0.0004210973645929287, 216589000000
-0.05915208590924917, 0.019525311214348917, -1.565983326010351e-05, 216594000000
-0.04850874243926029, 0.006679524916736006, -9.00149560657262e-05, 216599000000
-0.050015865778362784, 0.006738883231941609, 0.00023159696190527945, 216604000000
-0.040319956172467274, 0.021601270494674668, -0.00024384539911124627, 216609000000
-0.04687672195124848, -0.016138838256238543, 0.00020476352572090762, 216614000000
-0.032371783378473865, 0.020586124431449717, -7.280730131261747e-05, 216619000000
-0.04909207066779283, -0.00992296968716707, 2.8597870306148692e-05, 216624000000
-0.0461722751496163, -0.016871537447581714, 0.00013711240676246241, 216629000000
-0.0424739759384537, 0.02518845788638479, 0.00015697638859297122, 216634000000
-0.053395282852200375, 0.011235456997438924, -0.0002351702946892982, 216639000000
-0.0676923171327088, -0.004358235084030351, 0.00018462753117550411, 216644000000
-0.08705038236815714, -0.00805630536279728, 0.00011425604758548399, 216649000000
-0.06491296738854394, -0.01936700993362062, 0.0001395972353965942, 216654000000
-22.800177414717833, -0.006452260658452595, 0.00017869995088291737, 216659000000
0.29920842714285034, 0.0006245342958388792, -0.00020277235633447748, 216664000000
0.1445541482020775, 0.017636918318842627, -0.00020997736409031242, 216669000000
-0.1277097829961865, -0.005205358553408133, 0.00024706656805312987, 216674000000
0.06695087911648287, -0.006532891147525104, -0.0001363968251475906, 216679000000
-0.10812205400624925, -0.0021178085091484765, 4.173172039998127e-05, 216684000000
5.609963579210052, -0.0008486020604356896, -0.00010759486670011729, 216689000000
1.2639967684825657, -0.015819914269582555, 8.469627025265625e-05, 216694000000
-0.2184036722146604, -0.010335343448635395, -3.0034577632173864e-05, 216699000000
-0.07933460695303168, 0.0199177142113437, 0.0001649037959280122, 216704000000
0.014704344056413259, 0.007916367762180508, -0.00020724196789373493, 216709000000
-0.12136965897699246, 0.035783632540156235, -0.0001309096212520528, 216714000000
-0.08030438086858434, 0.010957573191351428, 0.00038205323203300277, 216719000000
0.40498152542938526, -0.028939708104194772, 4.4224138566535086e-05, 216724000000
-0.11394968551198587, -0.0007818953448158529, 0.0001707571496312649, 216729000000
-0.06240437665254927, 0.011157850263844103, -0.00042340510723815083, 216734000000
-0.059514585348235324, -0.03878838427801334, -0.00015573044004519242, 216739000000
0.014516193654880435, -0.014421038440973408, -6.15346618180342e-05, 216744000000
-0.17148417104818744, -0.006888670213737816, 0.00013827310503703244, 216749000000
-0.06489362963506953, 0.018592605378535187, 0.00012703568947624151, 216754000000
0.34726939375696664, 0.02475080876018678, 0.00013397357662148565, 216759000000
0.03302745894987848, -0.018282833890834776, -0.0005752586081228288, 216764000000
-0.14052281087669188, 0.0044004621906170585, -4.7752633198909876e-05, 216769000000
-0.08230966436386153, 0.013560830418177773, 0.00018798480367807774, 216774000000
-0.06723869078356114, -0.004040707409854536, 0.0004105259493066837, 216779000000
-0.08358757281600175, -0.01250820779294314, 0.0003121506157867322, 216784000000
-0.03892076764523063, 0.0006777637958986144, 7.99223804452578e-05, 216789000000
-0.05402727506624159, 0.0018761964120988088, 0.00021369325478715328, 216794000000
-0.04883004058480015, -0.02321406350348633, 0.00012665515907571927, 216799000000
-0.08242016407648153, 0.004337049854032979, 9.243740488881241e-05, 216804000000
-0.06301803572061457, 0.000749166193478713, 0.00018902116564996718, 216809000000
-0.060637007740924044, 0.007070546468374806, 4.2624342010575456e-05, 216814000000
0.03579141388419102, -0.005707251361987688, -0.0002642986001476084, 216819000000
-0.10707869384900237, 0.004934657316179781, 0.00020108591636809104, 216824000000
-0.042597614074782214, -0.010985877219427934, -7.439154525024986e-05, 216829000000
-0.0005054190097735917, 0.025249553302300207, 3.089220696495706e-05, 216834000000
-0.15381371036386435, 0.0029768288585864068, -0.00023726587281701296, 216839000000
-0.05498790475066294, 0.012425222585111561, 0.00014256819496345302, 216844000000
-0.011144643901541913, 0.02710586536776246, 0.00012367175101346553, 216849000000
-0.13348617384121392, -0.0001370108583079202, 7.16467716712255e-05, 216854000000
0.3072017192606506, -0.005053631553396309, -0.00019133164187740118, 216859000000
0.08305083823847777, 0.0038481793104620772, -3.257262393406035e-05, 216864000000
-0.18800975587797633, -0.010150776398378686, -8.518678752396499e-05, 216869000000
0.021079821042392588, -0.0033887126782476545, 0.0003528397352012221, 216874000000
-0.14471188639707008, 0.005956792909067532, 6.668700104681619e-05, 216879000000
-0.020749124392742194, -0.004106619310460328, -0.00010637781006715351, 216884000000
0.009757084644111794, 0.004385267079293799, -0.00025977775959692333, 216889000000
-0.12272144499774336, -0.0033562331159779635, 0.00030235462719806184, 216894000000
0.015306115935722203, 0.02679770287942537, -0.00032859503606129896, 216899000000
-0.13044019834843876, -0.00915988398591288, -0.00023599685750990727, 216904000000
-0.08207467369969143, -0.022859353083186394, 0.0002705653266737107, 216909000000
0.046413039292478676, 0.012237937777265265, -9.26213274719717e-05, 216914000000
-0.10631805599284608, 0.0017071727701343203, -0.0003058739787428076, 216919000000
-0.0022589369705201343, -0.002457918805644229, -8.976743033698262e-05, 216924000000
-0.04832058276373028, -0.003284848216639472, 0.0002422349598072004, 216929000000
-0.13414802796684913, -0.006350833750930467, 0.00030024897113457367, 216934000000
-0.004763288166347, -0.007569552899787165, -8.490302926621186e-05, 216939000000
-0.06012636289886451, -0.0025588741108991953, 0.0001879685597149575, 216944000000
-0.05380424150650412, -0.012901958381241384, -0.00017451923305417097, 216949000000
-0.04054615648782325, 0.01440961614785739, -2.235089531248727e-05, 216954000000
-0.09206951102297513, 0.0009562911216505778, -0.00019925355111010795, 216959000000
0.3575847531484169, 0.008202003094254525, 5.559296263525165e-05, 216964000000
-0.1275314825563597, -0.010030873232939995, -0.00029977764953533734, 216969000000
0.04499244700945414, -0.05989561377932779, 0.00020786366923805397, 216974000000
-0.05449229563467278, 0.0030095609064609554, -0.00013498710294305107, 216979000000
-0.04995063727441203, -0.01696546915871073, 0.0005493528905970298, 216984000000
-0.03131861496034713, 0.009082799524212884, 0.00021869624101029464, 216989000000
-0.051976976018007305, -0.019243180198922606, 0.00046836063497989, 216994000000
-0.06551066197205513, -0.003639836119204297, 9.021987480844526e-05, 216999000000
-0.08243863591872176, -0.021866083624470574, -0.00011661251003508631, 217004000000
-0.047743710800565636, 0.008352039179170509, -0.00011866233445606623, 217009000000
-0.04860631570053757, 0.030928818980038245, 0.00014050800880044368, 217014000000
-0.04439072136898578, -0.014499367394451028, -0.00010470695833274154, 217019000000
-0.05572327781673793, -0.00676335089336289, -0.000263262808090285, 217024000000
-0.039999325232023604, -0.020289803648949077, 0.0003209887207158192, 217029000000
-0.06945218853987581, 0.02620090005639047, -0.00013631614807016674, 217034000000
-0.060223123157851687, 0.01779082862006391, 0.0003367262724579604, 217039000000
-0.04609899128235935, -0.021009035907368842, 0.0002879199317032894, 217044000000
-0.06896836240785921, 0.00015840590872531507, 0.0001991930438419898, 217049000000
-0.03443498782431558, -0.019483516174361584, -0.0004758415180248882, 217054000000
-0.03588934561168352, -0.015096650101836319, -1.337285432111988e-05, 217059000000
0.4297329071464682, -0.01072725398900552, -2.263729759672766e-05, 217064000000
-0.0143028653539952, 0.010236174133019523, -0.00016071115864770176, 217069000000
-0.06814434852371608, 0.005064301604779515, 7.447396226769611e-05, 217074000000
-0.05643775684067617, -0.004521254458169579, 0.00021291770866451454, 217079000000
-0.039823708981150716, 0.01079679743091408, -0.00015837007161150583, 217084000000
-0.0786939506915352, 0.009976333856556248, 0.00046138195542935013, 217089000000
-0.06492201367555664, -0.019363593166621746, -2.0929452514639267e-05, 217094000000
-0.0827817973859101, 0.01399520956489224, 0.00023547692422948736, 217099000000
-0.05926000944581041, -0.03802448179333951, -0.00020099262318606584, 217104000000
-0.07315969850541419, -0.012926162811806455, -5.800629023927029e-05, 217109000000
-0.07505529209514342, -0.015020810098446365, 0.00018475911339119552, 217114000000
-0.059739235126626676, -0.02936388173577158, 8.327294296942104e-05, 217119000000
-0.05215929438379716, 0.021535204538969063, 0.0001406080514429571, 217124000000
-0.05049622737016695, -0.017421682540297277, -0.0004010794345668983, 217129000000
-0.061937779589409214, -0.02226667911105188, -0.00030406321114336037, 217134000000
-0.06144110205442131, -0.005447932421512013, -8.462076249392244e-05, 217139000000
-0.04382175473694902, -0.004601445147390482, 0.00023924460348247596, 217144000000
-0.0426913554752152, 0.03567716216717673, 6.870601079479461e-05, 217149000000
-0.02670797528240462, -0.01201137178775349, 0.00011936723026670289, 217154000000
-0.19011949093377284, 0.011253474253818618, -1.63773369945155e-05, 217159000000
0.025593930553742598, 0.004561045995985483, -0.00023367184728725023, 217164000000
0.3539804467344657, 0.0011868256723367465, -6.883338313588468e-05, 217169000000
-0.12869971208312292, -0.01848770408160427, -0.0003541152828081728, 217174000000
-0.006305922767609169, -0.025760365806334107, -1.994987121482742e-05, 217179000000
-0.10536253743137015, 0.0007911269619337004, 9.741403670905165e-05, 217184000000
-0.15381903237358505, -0.03339923924506845, 2.102320593290957e-05, 217189000000
0.050695482963498566, 0.012286464057482882, 0.0002982781899829956, 217194000000
-0.06230199140029285, 0.01623582487220982, -0.00024036094952420078, 217199000000
-0.13568599642864948, 0.018236566358526513, -0.0002728916957700089, 217204000000
0.07243722553567279, 0.010036596906000742, 0.00010349305704860504, 217209000000
-0.059403944298998444, 0.022107495935175782, -0.00018924291357373243, 217214000000
-0.16097103055540715, 0.023599341597413566, 7.048044931599e-05, 217219000000
0.004372797546100413, -0.00783479601015422, 7.428841145858623e-05, 217224000000
-0.1531271647776349, -0.003851997197948315, -9.987884300784542e-05, 217229000000
0.0482914311202851, -0.009131457507567765, 0.00021482165032196178, 217234000000
-0.05415066687408013, 0.02888787542848314, -0.0005737044850081855, 217239000000
-0.12816857633056508, -0.019082997941059148, 1.9002728009669965e-05, 217244000000
0.03844268162139879, 0.019770357676147637, -0.00024586538601198524, 217249000000
-0.1680827532672498, -0.0036369774253333744, 0.0001415053970858392, 217254000000
-0.0461724597431362, 0.00859689915464195, 0.00011027240782272873, 217259000000
-0.004083937085742048, 0.04129154862581946, -0.00010669459890708046, 217264000000
0.20348821614189055, 0.009330742368306822, -0.0002874931697077137, 217269000000
0.03459481705739725, 0.006244365144423549, -0.00012373800546220382, 217274000000
-0.15749782340538349, -0.013196965807545058, -9.312423574253958e-05, 217279000000
-0.06860888005662703, 0.0008025505281059428, 8.691881406075684e-06, 217284000000
0.06993304685859086, -0.003246172103500365, 0.0002589300175932277, 217289000000
-0.16754092391911787, 0.021419798614884862, -0.00040113483583853644, 217294000000
-0.03347809440302467, 0.021480541220341043, 1.3081418380592038e-05, 217299000000
0.06266233344359551, 0.019692600384051795, 4.923421374252919e-06, 217304000000
-0.16797724038019163, 0.015808516177051445, 2.3737482737334332e-05, 217309000000
-0.06357236295974406, 0.009098969509656139, -0.00030485360665632164, 217314000000
0.07454047898559962, -0.007559565628417305, 5.5362348096825524e-05, 217319000000
-0.1488850280013699, 0.00755331993130801, 0.00014564100494978937, 217324000000
-0.07147855450790876, 0.012711043196557546, -0.00010759552740959038, 217329000000
-0.05711514131387998, 0.0025664481166055254, -0.000224303119259447, 217334000000
0.05044914300048165, 0.028396416075880945, 0.0003225353822512936, 217339000000
-0.15264308667599105, -0.029374813961705798, -0.00014855383731962642, 217345000000
-0.03040057713017744, 0.022408475515488364, 0.00024358230275272347, 217350000000
-0.04486052654140029, 0.01856776402060369, 6.393115764088173e-05, 217355000000
-0.048717054822883195, -0.03053194815958599, -7.971822220596031e-05, 217360000000
0.09676591293039798, -0.02351745902654591, 0.0003225314005633301, 217365000000
0.2013356969321993, 0.009872442455892402, 2.745634684466981e-05, 217370000000
-0.04707494702797794, 0.0020969631838261425, -0.00014994128997633554, 217375000000
0.06330862286802363, -0.005050244984979508, -0.00021352889761285705, 217380000000
-0.21031920726063325, -0.0017457613756260975, 7.330689383840105e-05, 217385000000
-0.0649072140122623, -0.01704217065867583, -0.0002381579065358619, 217390000000
0.07785047575354592, -0.0029407216010718254, -0.000168789519367033, 217395000000
-0.18050677182110728, 0.009277546661325827, -1.7860686956764492e-05, 217400000000
0.0717380813634505, 0.006255188735323408, -9.561473804795479e-05, 217405000000
-0.1318328792473547, 0.020570481695975997, 0.00014557596596190907, 217410000000
-0.085733795071889, 0.007854670803220457, -7.99803745459497e-05, 217415000000
0.09484824167015035, -0.01152323207945766, -2.3418690257557844e-06, 217420000000
-0.22606063753185068, -0.019852396404623066, -0.00020018003906071484, 217425000000
-0.05752200876862504, -0.0016995201617749835, 1.5758846342529155e-05, 217430000000
0.04174995863009208, 0.008203233460534419, -5.2220663923894565e-05, 217435000000
-0.23659790614389486, -0.0035563762200058395, 5.490336397827245e-05, 217440000000
-0.05604168980909818, 0.011371293522546837, 0.00012093190594736152, 217445000000
0.06488584992332512, 0.012260303073775028, 1.943009923328146e-05, 217450000000
-0.169726699048385, 0.031255892378658445, -0.00045881614947946095, 217455000000
0.0667254064482706, 0.006917271164357676, 4.3098210278792486e-05, 217460000000
-0.06122791806145151, 0.006499989894728345, -0.0002515157152840545, 217465000000
-0.1945138602230427, -8.89763454352048e-05, 0.0002594393719221518, 217470000000
0.5304919524962805, -0.005144552333088996, -8.208090098765969e-06, 217475000000
-0.10493610600553491, 0.0052490927599730935, 3.0481899744478167e-06, 217480000000
-0.19474228122382403, -0.009582932938549425, -6.643412887755343e-05, 217485000000
0.15183099366179248, 0.008645171680017973, -5.233953749052927e-05, 217490000000
-0.10409741383855797, 0.010991582207684836, -1.5212920688983316e-05, 217495000000
-0.22751715979472426, 0.01697982057714426, -8.227196530906146e-05, 217500000000
0.15248596717427562, 0.006297136010323111, 5.952712459777205e-05, 217505000000
-0.06574461753832958, 0.035004835252906936, 0.000225303232405482, 217510000000
-0.21931311879443088, -0.004933092700461085, 0.0003258237965161089, 217515000000
0.07027654738342523, 0.01064784717875346, -0.00017423536604789223, 217520000000
-0.07589068173112709, -0.0029874530793984164, -0.00030870754482842947, 217525000000
-0.06057096039680134, -0.01763584682666803, 0.0002556598686705415, 217530000000
-0.02443022620296531, 0.018946829383278213, 0.00021306190980935417, 217535000000
0.330117184895798, -0.007766460718323727, 6.0445080652702644e-05, 217540000000
-0.020537657274708233, -0.017312627119675163, -0.00014229889901587106, 217545000000
-0.06866102244120857, 0.02105741703746423, -0.00015255392659990183, 217550000000
-0.07041147671634325, 0.016317847276297, -0.00014913253949852442, 217555000000
-0.19495959489487108, -0.009420285866597962, 0.00024110090870255334, 217560000000
0.077940291331077, 0.02745575498078467, 0.00022852379437025914, 217565000000
-0.06111282431545481, -0.02525596584564327, 0.00026553120728086164, 217570000000
-0.056697900003885277, 0.023483336527341435, 0.00018219315775626783, 217575000000
-0.200404940632758, 0.010527090788387474, -0.00025040681846856246, 217580000000
0.06912390896595817, 0.007237507032619957, -2.921197663742653e-06, 217585000000
-0.044829339445948094, 0.00492332507906602, 0.0002493687217484745, 217590000000
-0.057501903071988776, 0.0006450527255274939, -1.3981688082213944e-05, 217595000000
-0.05119916299912623, 0.001532943714182999, 5.479384844842551e-05, 217600000000
-0.13178894360764715, 0.007101274116960352, 0.00015392458875638273, 217605000000
0.07091678279213207, -0.006341052268258301, 0.00012704625103589706, 217610000000
-0.0883831738031082, 0.011809427310761726, -8.46916004707869e-05, 217615000000
-0.04585901915624476, 0.0018925531322789666, 0.00027236599153402334, 217620000000
-0.05112927986678412, -0.013660460318818277, -0.00035994447571987344, 217625000000
-0.07161213831596878, 0.026238715519932, 5.9958404261861946e-05, 217630000000
-0.0655054965055554, -0.005347675079542518, 0.0002110730721209907, 217635000000
-0.052636624735807686, 0.0028392606107831525, -0.00017496558030295355, 217640000000
0.3212960287329942, 0.006078151436320714, -8.43194273815478e-05, 217645000000
-0.1288012448755151, -0.015417668833902762, 7.190628333448084e-05, 217650000000
-0.028958606280689272, 0.006566670021269885, -3.484495583095165e-05, 217655000000
-0.06660066373263711, 0.007876035731737561, 0.00013748784639063295, 217660000000
-0.020546386203095374, 0.022457715504283358, 2.317454845336766e-05, 217665000000
-0.07485967461801352, 0.032287058785352304, -5.937424894541351e-05, 217670000000
-0.02744190568684667, 0.01886456563185913, 0.00035837317396455944, 217675000000
-0.05892457347623179, 0.040093699524878186, 3.264557176803312e-05, 217680000000
-0.12268305175053514, 0.023322281213842357, 0.00020942564180884905, 217685000000
-0.029462292420161473, -0.010828579531344808, -9.60886481293554e-05, 217690000000
-0.02875122713604937, -0.008907422874990028, 0.0004453343778164327, 217695000000
-0.059179067864047835, -0.026142268214984263, 0.00040808154892915666, 217700000000
-0.08609756338667039, -0.02043265567200488, -0.0002317911184888464, 217705000000
-0.01435311463512959, -0.0004422256493203467, 0.0001290630773848999, 217710000000
-0.057794924209445576, 0.006652073600768789, -0.00010101172818957485, 217715000000
-0.09906240572700968, 0.03881225521003647, 5.850667871612931e-06, 217720000000
-0.027464475303657452, 0.008619151967850108, 1.0387279265528777e-05, 217725000000
-0.08178283510553448, -0.002681130994260047, 0.00038313462569535515, 217730000000
-0.06602966565593682, -0.0009823415667903014, 4.5077711878174704e-05, 217735000000
-0.009343155574164628, 0.028951900118685085, 0.00018547711282693467, 217740000000
0.3220908555293398, -0.03141540898535983, 0.0003163839390344069, 217745000000
-0.07435842501956508, -0.012561172592262537, 0.00035577087016067647, 217750000000
-0.04738864058326272, 0.03336493772714563, -0.00029626701184815827, 217755000000
-0.04595724764703476, 0.03833166852101674, 6.809358196079459e-05, 217760000000
-0.0583957642591681, -0.005839375178299816, 9.939657532753687e-05, 217765000000
-0.05719941942986384, 0.00019042764323267802, 8.028307273452122e-05, 217770000000
-0.05709859980801832, 0.006058467355437449, -1.0860169853093812e-05, 217775000000
-0.06161701949325577, 0.010807205487231126, 0.0003544650664394574, 217780000000
-0.07823725829468144, -0.026009084527897335, 0.00015712955507565506, 217785000000
-0.07369808626391364, -0.026241646658911343, -0.00011282466580227046, 217790000000
-0.04658732574697743, 0.00814135410525228, -0.0002856350745659366, 217795000000
-0.06275633214468514, 0.015936407249786632, 0.00010551840118716156, 217800000000
-0.0728227164386191, 0.04110804834911007, 8.59078271956258e-05, 217805000000
-0.06441254425873427, 0.020685300942434325, 0.00012902733336819642, 217810000000
-0.06952660810562938, 0.033700844122646394, 1.008390300529814e-05, 217815000000
-0.05711697918597614, 0.007063229468827206, -0.0002265925810416891, 217820000000
-0.06178194098800927, 0.0062040411090635884, 6.848796200757657e-05, 217825000000
-0.0698958024050243, -0.0064738896581979346, 0.00016062845135748132, 217830000000
-0.01955787481303239, 0.024477891234746096, -0.0004162366588005073, 217835000000
-0.08517486727025965, 0.005234329371568681, -8.420825772517439e-05, 217840000000
0.2692490139507553, 0.004846391355926108, -1.4764475509456891e-05, 217845000000
-0.006484536341446315, 0.004363065400283498, 0.0002707844600597303, 217850000000
-0.051693791629842015, 0.006422226920155603, -0.00023631958473038407, 217855000000
-0.016446784878891983, -0.021839727156999576, 0.0002859720374520426, 217860000000
-0.047064543562313384, 0.009979365651622971, 0.00012844594340499774, 217865000000
-0.04206813172073173, -0.0026529167710243728, 1.7911251076615667e-05, 217870000000
-0.053077274364212834, 0.009093953639986864, -0.00018514526319605764, 217875000000
-0.09383094748581897, -0.0027778260363617207, 0.0003159307309469119, 217880000000
-0.07808648570148699, -0.009264755362527043, 8.623179356258357e-05, 217885000000
-0.04846293611912619, 0.0044191674590154245, 0.00011847260956713462, 217890000000
-0.0791146439251564, 0.006220812575982474, -0.00021410979693672598, 217896000000
-0.053479856624358224, -0.016499496953781053, -9.530508720818609e-06, 217901000000
-0.04099322693975822, -0.01290072275406, -0.0005700094392537829, 217906000000
-0.018127950509446926, -0.007891394957790825, 0.00016522557361678975, 217911000000
-0.06372985889578532, 0.03876801870818513, 0.00024641629705704303, 217916000000
-0.0729404948412729, -0.007878054170502196, -5.880356302437068e-05, 217921000000
-0.07974984945787823, 0.0027346480030928317, -0.000288822558275578, 217926000000
-0.06915991101347194, -0.021911003910901176, -0.00013143566842722696, 217931000000
-0.06401377656951059, -0.006089132627121355, 0.00025464318877876306, 217936000000
-0.04693336127381185, -0.014413016893099402, -0.00015533220969615063, 217941000000
-0.06419051511657406, -0.008447025877403636, 0.00025550227294770264, 217946000000
0.32932451968193527, -0.019735208535231655, -0.00016747681846760528, 217951000000
-0.022535813628641113, -0.018124653574404757, -2.1493670813257446e-05, 217956000000
-0.07850493582021874, -0.022243075242272852, -0.00023791566956858555, 217961000000
-0.054282604721358804, 0.0021674032312185244, -5.194316370928823e-05, 217966000000
-0.005291127708822136, -0.0014769076315393587, -4.4756847469343606e-05, 217971000000
-0.06740634109956578, -0.0028444212964973074, -1.205650233762428e-05, 217976000000
0.0017492763991194815, -0.004661883105451003, 0.00013092257285177104, 217981000000
-0.07600901734432046, -0.009311697080400763, -6.837743522307702e-05, 217986000000
-0.05594444496081233, -0.0010292942050270494, -0.0001843919099997381, 217991000000
-0.026997794430615597, -0.012739526113163743, -2.324817245545636e-05, 217996000000
-0.08219732595093857, 0.020890635800120076, 6.0938349687233595e-05, 218001000000
-0.05279859346293036, -0.02039022058052348, -0.00014538746634615475, 218006000000
-0.04710578604095613, -0.007935972242596866, -7.076329511927999e-05, 218011000000
-0.051554580812756184, -0.009917194362223013, -2.9696860029722414e-05, 218016000000
-0.05358892891403916, -0.004808870095866607, -0.00038703552460011897, 218021000000
-0.03206554143284339, -0.009087552393498666, 4.026528641364661e-05, 218026000000
-0.050045954628100575, 0.023606319291317807, -5.0432794971833494e-05, 218031000000
-0.05016609067704818, -0.0015613123596840783, 7.99144052169663e-05, 218036000000
-0.059447576355791024, -0.009492435228338961, 0.0002962367019996905, 218041000000
-0.04484230026299711, 0.02440351748780251, -2.050607331765562e-06, 218046000000
0.35515949206847747, 0.011495276326614106, 0.00019518608257101158, 218051000000
-0.10624855478846622, 0.012825528783157755, -6.088493642238048e-05, 218056000000
-0.02359725513174238, -0.007885101066291277, -0.00018199636372253999, 218061000000
-0.04758460354174052, 0.010673054638082134, 0.0003895811081780709, 218066000000
-0.07795358293209032, -0.009330892967214018, 0.00011664014573167226, 218071000000
-0.06394315228776247, 0.009508016157752638, 3.471721885782373e-05, 218076000000
-0.00318239524678535, 0.013766945909139025, 3.2744416540958495e-05, 218081000000
-0.10433814030879641, -0.03307222805301065, -0.00014953126856975858, 218086000000
-0.0735230086087969, 0.008107228506150973, 8.388539670510225e-05, 218091000000
-0.03847544306715488, 0.023083560931667597, -0.00016370248805512978, 218096000000
-0.044796988874859396, 0.023013507834061635, 9.835874300122479e-05, 218101000000
-0.0433784269596833, -0.0168508044025852, 0.0001998569935157305, 218106000000
-0.06822265758415728, 0.00039642686494665875, -4.6634152603901874e-05, 218111000000
-0.02282202946182106, 0.009431793097598807, -5.223229182543576e-05, 218116000000
-0.07706395842416305, -0.025326341335071053, -0.0002169420979623019, 218121000000
-0.049717181864536296, -0.00590937913944554, -0.00021220173010428215, 218126000000
-0.01563803506462808, 0.008094833008428502, -7.510803710031753e-06, 218131000000
-0.05767481023592066, 0.009817708856828056, -0.0004136495099676086, 218136000000
-0.05205439009946589, 0.0011786802035727907, 0.0001248140975554929, 218141000000
-0.022195840270024386, 0.007302969585427929, -3.8237016506388846e-05, 218146000000
0.25130814600252044, -0.012220810576024484, -0.00033898091805990046, 218151000000
-0.034412998309425076, -0.023204741506224296, 0.0002273099722853753, 218156000000
-0.032504284222784216, -0.010291982015531132, 0.00035503671447492473, 218161000000
-0.035875623685327165, -0.00795040034187997, 0.00019321960374069517, 218166000000
-0.08778535309012915, -0.018820606768349853, 1.4787252439285959e-05, 218171000000
-0.08042464967555257, -0.016903119229851157, -8.149162068962686e-05, 218176000000
-0.02471186092989879, -0.029844129888112997, 0.00014333624769846857, 218181000000
-0.05896375892780689, -0.005389697824573343, -0.0001169706617938197, 218186000000
-0.04021747030578849, 0.0023021616358957064, 6.0367912995503445e-05, 218191000000
-0.05212032175401673, 0.003450228664395945, -3.783143675626838e-05, 218196000000
-0.07843897521250776, 0.01820725898325251, -0.00023891413916055036, 218201000000
-0.05698628846312012, -0.014536028179164322, 6.539695635328055e-05, 218206000000
-0.0479812567580091, -0.009814256447638748, 0.00011648442834146879, 218211000000
-0.04981591162783409, 0.0008965826991431441, 0.00010351529099358584, 218216000000
-0.042041264120065834, 0.0035426815214031327, -0.00022246590018954804, 218221000000
-0.0877243329020845, 0.01634372285183117, -0.0001398064226675983, 218227000000
-0.04186837293219769, 0.007440210197201115, -0.0003238700608534947, 218232000000
-0.029331525431637393, 0.0295271030973972, 1.8341700767950818e-05, 218237000000
-0.02169631601696532, -0.012509397471101125, -0.00030520130007281236, 218242000000
-0.07104371203352274, -0.0074881946866772195, -0.0004522095451602965, 218247000000
-0.08343997585372245, -0.02262855715307195, 7.30118839885427e-05, 218252000000
0.39255527172322996, -0.015445492293143607, 0.00013477970929312176, 218257000000
-0.1147779744741858, -0.007652790639496963, 3.785317500081801e-05, 218262000000
-0.010543831515127104, 0.02843506519159261, 6.377434600148613e-05, 218267000000
-0.034768234355196076, 0.017049434969356004, 7.185452055616425e-05, 218272000000
-0.10139294708155983, -0.0027711644120365603, 0.00030985980701570936, 218277000000
-0.06367726034908985, -0.012344406992936992, 0.00047611947708632417, 218282000000
-0.04969376902146244, 0.011240177862421107, -0.00010847684237746352, 218287000000
-0.04129101443989305, 0.02267601455562527, -0.00015470970972579612, 218292000000
-0.06625399280112748, 0.04120998039595184, -0.00011132968626761018, 218297000000
0.0004578111225886361, -0.014596827341885202, 0.00030733802477853756, 218302000000
-0.10567644359943207, 0.027210402471054888, 0.00011489784978993491, 218307000000
-0.06428677927574637, -0.03823646601685853, 5.212484443875724e-06, 218312000000
-0.015777751997719157, 0.02400378577120955, 0.0001092981770304629, 218317000000
-0.07539958074958711, 0.0008665989741599787, -0.0001794742162495807, 218323000000
-0.034216618507328496, -0.00607435250959141, 6.165709169825479e-05, 218328000000
-0.04043736051298985, 0.004548739497604064, -0.00027087938585750157, 218333000000
-0.09096939306240398, -0.0015139231154631398, 0.00019556711758818055, 218338000000
-0.049209773770286486, 0.0021756870564569528, 0.0001552516022191604, 218343000000
-0.08015359718231599, -0.002653725356435186, 0.00015237553485481783, 218348000000
-0.04745556620225233, 0.01382063231350933, 0.00015336765385335485, 218353000000
0.3600842665102779, -0.015250062071617679, 0.00012742070584761307, 218358000000
-0.11641407163895247, -0.0005898747331154757, 5.5505385686863135e-05, 218363000000
-0.010035786169053781, -0.013638769103432669, -0.0001797461631462843, 218368000000
-0.09524182733675769, 0.004356273982526015, -0.0001399617207283996, 218373000000
-0.0677111403811518, -0.007282988265148938, 5.629980894545769e-06, 218378000000
0.010152758415286393, -0.0028200785856193292, -6.869476595706344e-05, 218383000000
-0.07797247204143264, 0.016251297826839147, -9.213613964200988e-05, 218388000000
-0.05281711009513705, 0.0001834508534440453, -0.0001223596584651279, 218393000000
-0.00083416266547434, 0.006501859438430926, -0.00017839556332572407, 218398000000
-0.12320609391059079, 0.019843000597494657, 0.000183275396655254, 218403000000
-0.037648048234317666, 0.0184331417501233, -5.9172389357926944e-05, 218408000000
-0.09937881539778053, 0.006585189004530707, 1.8239802209195898e-05, 218413000000
-0.02997034448090605, -0.009826813470976047, 8.566197351258918e-05, 218418000000
-0.03580716904829614, 0.01339674938412164, -0.00010689993061059035, 218423000000
-0.05746276147211792, -0.018060864938654775, -5.9373127658641384e-05, 218428000000
-0.051199345188482744, 0.024124492056231964, -5.773898616140396e-05, 218433000000
-0.11072493775248654, -0.017763628879179164, -8.452285950023136e-05, 218438000000
-0.04093826121549129, 0.04163908099090832, 6.113405334066596e-05, 218443000000
-0.06863514473187285, 0.0035646774525481444, 0.00013569938109539675, 218448000000
-0.0748204018695268, -0.02588573768405512, -0.00038154118249804673, 218453000000
0.37135142619861294, 0.00875566210360329, 7.889648463353949e-05, 218458000000
-0.12876543761977366, -0.00297238430724499, -0.00018842935455636606, 218463000000
-0.0833862491003593, -0.019661629278034647, -2.3503375168342646e-05, 218468000000
-0.01681107301385923, -0.032030229055826566, -0.0004486015920646105, 218473000000
-0.07885666238327861, -0.011217970060123178, -0.00019693466947618676, 218478000000
-0.020772629416888642, 0.014038847199029212, 8.583150733371651e-05, 218483000000
-0.05960716937827261, 0.001331980566634277, 8.968286523379365e-06, 218488000000
-0.09217767537393126, 0.0009011366082579566, 0.00015383195301143208, 218493000000
-0.0026031943457966687, 0.015283083308878663, 0.0001842463857430459, 218498000000
-0.07302318581184128, 0.008895881782891536, -0.00017680504848967943, 218503000000
-0.04542209788266737, 0.01579225901377918, 6.102208487085263e-05, 218508000000
-0.030047970768243257, -0.00938845497171871, 9.637283600768078e-05, 218513000000
-0.11018663525465018, 0.022389326058240462, -0.00013481223505240977, 218518000000
-0.05659676303152005, -0.002643759329621872, 0.00020996689315037212, 218523000000
-0.034443340595531245, 0.009197097690858408, 9.403651396669428e-06, 218528000000
-0.106071456971237, -0.0020860097956375426, -0.00020132225234843976, 218533000000
-0.05236630890437254, 0.004212880733810544, 0.00010834641593035478, 218538000000
0.02414118774235359, 0.02149535632260089, -6.093777701597148e-05, 218543000000
-0.08563325916796072, 0.007942266984605066, -7.009723476876436e-05, 218548000000
-0.010652178588080598, -0.036859691149947145, -0.00021578589378502429, 218553000000
-0.08093577591119014, 0.013921594342414953, -0.00014981347486678413, 218558000000
0.33129883439089414, -0.010987284572489825, 0.0001064421130484013, 218563000000
-0.021642710521816287, 0.015620276995802434, 6.24865666407201e-05, 218568000000
-0.14269449739369644, 0.009576943861994865, 0.00013987699582306538, 218573000000
-0.00485754434084268, -0.0030937103313605557, 8.957353016865163e-05, 218578000000
-0.11699928424143291, -0.006908653986318602, 0.00034835326953674777, 218583000000
-0.0780919094241353, 0.0004275679709229359, -0.00016168514254758057, 218588000000
-0.022467364170423797, -0.0024017059424169106, 9.499641599122134e-05, 218593000000
-0.10400236048842924, -0.006461487723764996, -0.0004206086673815043, 218598000000
0.04323589498197173, -0.01851377365798754, -0.00012168744695718948, 218603000000
-0.10151695007130752, 0.01927046647859355, 0.00015005682847170964, 218608000000
0.0018864287976764656, -0.0037945535439482658, 0.0004280483336515168, 218613000000
-0.09615085832171057, 0.041597649900016104, -0.00017373642635647236, 218618000000
-0.04881300173378263, 0.04132772697382336, -0.00011759217080614385, 218623000000
0.37285142018174416, -0.01842484580730238, 0.00011203055935280772, 218628000000
-0.09149137078724232, -0.016449780665542243, -0.00025424512250709453, 218633000000
0.01197069907972858, -0.0030625092652257135, 4.628565488719507e-06, 218638000000
-0.11047388005999316, -0.0030996278771724083, 0.00014940825901368684, 218643000000
-0.0787874924275776, 0.045110159145738044, -0.00015407543091416795, 218648000000
-0.009430589791672729, 0.01184115138350769, 0.00044601439578745105, 218653000000
-0.1264620843540225, 0.02633248802212143, -5.113058301270571e-05, 218658000000
-0.053124880584552996, 0.010328282441643041, 3.189325836887999e-05, 218663000000
-0.010205516333117236, -0.010416162524945873, 0.00014770363216189816, 218668000000
-0.12574530543350879, 0.016119339648962235, 0.00021725700194381514, 218673000000
-0.048195672182671095, 0.021019850105032153, -0.0002431429194087866, 218678000000
-0.017064332122182085, 0.019459230111151235, 6.913428532623537e-05, 218684000000
-0.08706601128352659, 0.00809481617558177, -0.00010628217283991593, 218689000000
-0.038405060833990784, -0.0002936815119792468, -3.8926026218953345e-05, 218694000000
-0.0184151005505151, 0.009373205440256379, 0.0003094980098741724, 218699000000
-0.10247388250637318, 0.023682681413492935, 5.894861903481488e-05, 218704000000
-0.08189193221488847, -0.0027886574057485597, 1.211118748006998e-05, 218709000000
0.01842661476585411, -0.031223489670567463, -0.0002746405825069115, 218714000000
-0.067242353583773, -0.0075020715362051375, 0.00011119784740483344, 218719000000
-0.0742783741188985, 0.015843223107334267, -0.00017477553134460233, 218724000000
0.31374855695696424, -0.021469970561397926, -5.587454017221948e-05, 218729000000
-0.05440147072798114, -0.03071395348267656, 0.00021624353996543055, 218734000000
-0.03929967474586403, 0.004733077858996975, 0.00011466138971500653, 218739000000
-0.05076446034654271, 0.00021078656134166144, -0.0001784393657000873, 218744000000
-0.06229348700077841, -0.011277649518239263, -0.00019295277316737545, 218749000000
-0.0642827512174318, -0.007576528614502421, 0.00020193945385153152, 218754000000
-0.04920821589670429, -0.0006662889347531006, -2.256837861195929e-05, 218759000000
-0.06992782121472797, -0.02011479827829135, -4.139662692895587e-05, 218764000000
-0.07660194242433833, 0.00864656205514788, -6.443391546844469e-05, 218769000000
-0.0349663861363078, 0.022986234070135517, -0.00011348057515067991, 218774000000
-0.042015484179165674, 0.008323568046924737, -0.0001453667646223115, 218779000000
-0.08712852958378647, -0.005210015040053961, 0.0001896678483984089, 218784000000
-0.013164661414034474, -0.010990176726958558, -7.585369342105162e-05, 218789000000
-0.053888218855834474, -0.018008467448764956, -0.00020744710304510165, 218794000000
-0.06268871574309075, 0.022498550194261238, 8.656030604170004e-05, 218799000000
-0.02692668640410931, -0.01339059909015917, -5.6142858544635394e-05, 218804000000
-0.06584616753655577, 0.03779408655285809, 6.134526974555393e-05, 218809000000
-0.030399941389674088, -0.019618353606595404, -0.00017348384637302084, 218814000000
-0.08893599415946535, -0.028515234009289212, -0.00016120359704687576, 218819000000
-0.10002132353324494, 0.01282480286317718, -0.00012251366851375999, 218824000000
-0.03256340960057213, 0.011814116838735785, -2.1043302560551654e-05, 218829000000
0.3118551902090269, -0.015981076450769228, -5.138990017316558e-05, 218834000000
-0.10212568472761241, -0.029248709131199112, 0.00024713565011450503, 218839000000
-0.0797993647356812, -0.006919004196165451, -0.00012431680721242342, 218844000000
-0.011890366897001015, 0.01170720244015292, 0.00019261220373021523, 218849000000
-0.08633943297170463, -0.025890816488105657, -0.0002124937276723033, 218854000000
-0.03297428643858025, -0.027468478726736453, 0.00022073192725173449, 218859000000
0.004045168370796938, 0.007848212687346753, 1.7638104740060174e-05, 218864000000
-0.06849513472181565, 0.003949683468783167, 0.0003599656021672065, 218869000000
-0.03011665078845541, 0.002233049135965964, 0.00014225061155688956, 218874000000
-0.025627367622298045, -0.0006715500168072402, -6.4210163390829255e-06, 218879000000
-0.081072262188242, 0.03598747230130292, -9.071911036713455e-05, 218884000000
-0.046116246104610056, -0.028875553448067262, -3.270066963326319e-05, 218889000000
-0.04884470682835914, 0.0063749593700753865, -7.508554631372805e-05, 218894000000
-0.07466679012415858, -0.018690180849870057, -0.00022739041670193208, 218899000000
-0.0271424199243464, -0.002587740163553298, -0.00014521547769748926, 218904000000
-0.08816644905011688, -0.008417015218876367, -0.00017092471245517784, 218909000000
-0.05729850662144298, 0.006480047783120506, -0.0001931971038745362, 218914000000
0.024562827693979744, 0.014213042284026232, -0.00022823767565794445, 218919000000
-0.11301502838925742, 0.02205821465346436, 0.00033798778037691314, 218924000000
-0.056761703079179125, -0.009796255863869355, 4.08225722170316e-05, 218929000000
0.3969793774714203, -0.0025642147978253093, -0.00018337023256892956, 218934000000
-0.07639166931184334, 0.031262803579171335, 0.00016531540893913283, 218939000000
-0.04238772876539454, -0.018034175192600414, 0.0001502664538647448, 218944000000
-0.0020718755292354315, 0.0036487243332667665, -1.9271630412533105e-05, 218949000000
-0.08097703943916945, 0.014329230711742975, 0.00011782580683187223, 218954000000
-0.04297238658824638, -0.001531305333663187, 0.0005171435481578483, 218959000000
-0.10080496893091778, 0.006020033778131844, 1.045737613173121e-05, 218964000000
-0.05568577766693476, 0.029818767452497834, 0.0002361687282299587, 218969000000
-0.014597504441465018, 0.005050365419122476, -0.00022167873434439034, 218974000000
-0.12578475093246627, 0.0004207097923160986, 0.00021886975582508303, 218979000000
-0.039933965956775654, 0.02048477256338613, 0.00018385773835267387, 218984000000
-0.03799544478572893, -0.010627488025499022, -0.00024391342248856657, 218989000000
-0.10141872200176831, -0.0043269750899759965, -0.0002353224907583044, 218994000000
-0.08314369752762973, -0.014850102733623917, 0.0001283106036476984, 218999000000
-0.010223104834595802, 0.020892431633281444, 0.00014114229832131895, 219004000000
-0.08984449191942265, 0.016020633291727326, 6.434463596329578e-05, 219009000000
0.017125976814822044, -0.007182620451343143, -0.0002034230345875648, 219014000000
-0.06444685605810808, 0.007082238693127151, 2.2139223478416917e-05, 219019000000
-0.0404469912073444, 0.0012600497216087622, -3.594425083670987e-05, 219024000000
0.03018964833951867, -0.017466953368222113, 2.1179738387719893e-05, 219029000000
-0.10121491825861431, -0.0297283273819027, 0.00016314433828236297, 219034000000
0.35943992354454546, -0.0016547923046555028, 0.00013086807438435287, 219039000000
-0.08619931356155623, 0.019604896212021883, -0.00010419278407620335, 219044000000
-0.05481660933978847, 0.02421745117740468, -0.0002662608631900356, 219049000000
0.0017464283992268204, 0.04598666682255516, 0.00012957800452768979, 219054000000
-0.12027253331686076, 0.03150398763864327, 9.685016234170636e-05, 219059000000
-0.047082487949332716, 0.00013168117476803764, 0.00018062346003275807, 219064000000
-0.013169624370078908, 0.026339930501656082, 3.996691201980337e-05, 219069000000
-0.09632003608303873, -0.015438168583313013, 0.00028646713083465663, 219074000000
-0.022573357439924162, 0.013018956751113815, 0.00034553045425246944, 219079000000
-0.10397143231202498, -0.006607018889756209, -7.453408603348261e-05, 219084000000
-0.03271192038004095, -0.0005360115202868334, 0.00019236689497423352, 219089000000
-0.007380820110412458, -0.009676173585406744, -4.1017853791113625e-05, 219094000000
-0.08815718389621097, 0.017491865893183817, -0.0002469770762754551, 219099000000
-0.017474483863297148, -0.02550447375760912, 0.00010016258508923883, 219104000000
-0.07411082931962905, 0.02327832890290746, 0.00012687876392656185, 219109000000
-0.0781347351665346, 0.01738442846998668, 2.485264420666884e-05, 219114000000
-0.008428053340010622, -0.012988240805959941, -4.856376320221053e-05, 219119000000
-0.10360473885053528, 0.014038505152625913, 5.8201863889723104e-05, 219124000000
-0.0568630489606853, -0.006048606485289532, 1.0014236161495554e-05, 219129000000
-0.006470008799033275, 0.006954677070195723, -0.00022909573204060957, 219134000000
0.30229812634754627, -0.032685968175323765, 2.1699831649664118e-07, 219139000000
0.006845450093210404, -0.014092691295655864, -0.0002515472291274882, 219144000000
-0.07869849136450441, -0.0042235529636798635, 0.0005823426272264992, 219149000000
-0.050570310030468274, 0.013724593664364425, -0.00012877080320192283, 219154000000
0.02887584620410536, -0.034823878009593814, 0.0002889498015514848, 219159000000
-0.07494222817439136, -0.000815026114246007, -0.00015459174177948507, 219165000000
-0.052278253075562366, -0.005024779389859214, -1.210201012458027e-05, 219170000000
-0.023598222923116207, 0.010868864059515176, -0.0001246037955678222, 219175000000
-0.09476684452639086, 0.002779222179339195, 8.290062853551391e-05, 219180000000
-0.0014500450360858102, 0.018649210843242087, 3.052848678105306e-05, 219186000000
-0.09396458425771168, -0.009432873717405938, -1.6294534837450204e-05, 219191000000
-0.03487392052669393, 0.029206017618419535, 3.925485695135024e-05, 219196000000
-0.07665087221129083, -0.009661802420846058, 0.00021173720004645014, 219201000000
-0.07391031624582681, -0.003293039294813359, 0.0005950155339140958, 219206000000
-0.020054511530042163, 0.029323247698945745, 0.0005475006917950582, 219211000000
-0.11457121728758836, -0.01776066211344176, -0.00020395335375881913, 219216000000
-0.052434045126081325, 0.005588135872401367, 0.00014749258014035824, 219221000000
-0.06395315497823896, 0.00597570257414384, 0.00020181138199273596, 219226000000
-0.04205590017173555, -0.02628420035826892, -0.0005618995849305978, 219231000000
-0.05113399086059939, 0.004462862424582711, -0.00019911600244923298, 219236000000
0.27120177722453404, -0.0066216413338816005, -5.746594484618246e-05, 219241000000
-0.06266907332574843, 0.037941943441997444, 0.00035482882557906606, 219246000000
-0.015304415415384895, 0.006543901941468661, 0.00040711051251843874, 219251000000
-0.13271307285958336, 0.013822748974696906, 0.00012981609513933182, 219256000000
-0.07312485632592564, 0.01128961960111748, -5.169035231283207e-05, 219261000000
0.016876420957384775, -0.03084813877542584, -0.00011509070404408006, 219266000000
-0.0783662284733812, -0.016194172468211795, -1.5546518882187593e-05, 219271000000
-0.06915943934252386, -0.005771810756487372, 8.815612153740086e-05, 219276000000
0.010860776061652196, -0.012447816398689155, -0.0001922629593036013, 219281000000
-0.11354825352209058, 0.007113432144039955, 0.00016496819538011295, 219286000000
-0.03289028247661177, -0.005028271300325977, 1.3086201570594317e-05, 219291000000
-0.023971157770941536, -0.011295723004445937, -0.00021557467376649434, 219296000000
-0.09636134413303261, 0.005936742190703267, 6.668838745888453e-05, 219301000000
-0.05770930222668823, 0.011073543839913515, -6.463324057011152e-05, 219306000000
-0.019980660347542287, 0.0068682608584155315, -5.5960468456512974e-05, 219311000000
-0.07406093498801981, 0.019489422868507623, 1.6203417210044108e-05, 219316000000
-0.09035684788927142, 0.011919723917179294, 0.00016440851252030956, 219321000000
-0.0219745470237816, 0.010600783517024096, 7.054729072588954e-05, 219326000000
-0.09291062343012033, 0.0067776542072623125, -0.00013979487091642242, 219331000000
-0.020635391501522146, 0.02333511635342235, 0.0003201239288402362, 219336000000
0.27057721150962877, -0.01512047123861035, -5.059523475577093e-05, 219341000000
-0.07729267555575123, 0.03231072509798767, 4.172606618092421e-05, 219346000000
-0.05861836468206159, -0.008509257664173452, 0.00024640486397852895, 219351000000
-0.010051986865687326, -0.02211182480348636, -5.194780018036439e-05, 219356000000
-0.1288559518543937, -0.003882121889822167, 1.9454615367879138e-05, 219361000000
-0.043388016819504396, -0.008086445611806908, -2.8938346849970792e-05, 219366000000
-0.04087529218498711, 0.02681996694741601, -0.00019504848705311889, 219371000000
-0.04696165763189, -0.013409595441442667, 0.00021237421837287453, 219376000000
-0.037357629809746495, -0.002138771198995283, 0.00013502186635471074, 219381000000
-0.06395611450974897, -0.02351030289014522, 0.00041136890094778416, 219386000000
-0.020021850503264008, 0.006092402475160431, -8.034831658845095e-05, 219391000000
-0.1063708786713642, 0.02104522599577667, -0.00025084024983998974, 219396000000
-0.051292722978919104, 0.026451141901900194, 5.9924672344586985e-05, 219401000000
-0.04157349073718598, 0.0008082564166958241, -6.74409302311485e-05, 219406000000
-0.12957961156457992, 0.0016833721972827087, 9.229575233747244e-05, 219411000000
-0.05580809550172716, 6.236672422944281e-05, 0.00011535230273163714, 219416000000
0.005412294212371898, -0.01839171198146822, 9.879497812219183e-05, 219421000000
-0.09041864702437145, 0.016341751190438777, -0.0002888056827920865, 219426000000
-0.06310029473773068, 0.020177232451917354, 6.93846642067716e-06, 219431000000
-0.03144669707491919, 0.014689612771544673, -0.00026943826219228285, 219436000000
-0.1114358407886206, 0.013445443330526365, -0.0003772588094634879, 219441000000
0.3375984735349892, 0.00022466194261204237, 0.00014596008665126612, 219446000000
-0.016784181172093515, -0.0015990612076889896, -0.0003054062252673109, 219451000000
-0.08653318331480113, 0.004485744381005433, 1.1707355460200818e-05, 219456000000
-0.05774043462053795, 0.007298121452299875, -0.00010547878962798147, 219461000000
-0.04949874901724252, -0.020155326196169488, 0.0003068445787798977, 219466000000
-0.05978533875051069, 0.030226765013659465, -0.00027593108462236124, 219471000000
0.0018028115783758868, 0.0033803273113925465, 4.0905077625579564e-05, 219476000000
-0.0864041073323515, -0.02477347099270865, 9.510752936132039e-05, 219481000000
-0.02865410455792797, 0.011484653859125388, 5.390008492407768e-05, 219486000000
-0.01671843534299965, 0.004999728502316139, -0.000167457126819892, 219491000000
-0.11492324437223699, 0.007354037849799406, 0.00026149934670753995, 219496000000
-0.04200709668754863, 0.0043377590537109125, 5.170766854100087e-05, 219501000000
-0.0470970299403505, 0.01492207209436396, -0.000137854625134599, 219506000000
-0.04553732054285435, 0.029523828732643285, 5.1884485906311796e-05, 219511000000
-0.017878808616361763, 0.024937533495361982, -0.0003478787059391803, 219516000000
-0.10422054128087023, 0.006280669952068351, 0.00014669005353778696, 219521000000
-0.06876042784457725, 0.021589938969549465, 6.165333836686527e-06, 219526000000
-0.04137157421423762, -0.03353501058793191, 0.00017627971611686543, 219531000000
-0.08781803543154851, -0.01877334204448446, -0.00015861750223164183, 219536000000
-0.07809446958228117, -0.016048773568537487, 0.0001320081789436501, 219541000000
0.3717540809956018, 0.007834600073272645, -9.415392795639845e-05, 219546000000
-0.1219794494933788, 0.002352037824117363, -0.0004255995090916405, 219551000000
-0.024109096126933446, -0.006293351051817977, -0.0001478885383086533, 219556000000
-0.048139944964465484, -0.01508984165335329, 0.00018085934995461998, 219561000000
-0.06139201699771388, 0.0110837017646736, 1.6395742983762453e-05, 219566000000
-0.017558445829796446, -0.01871474514808595, 6.067769028168703e-05, 219571000000
-0.1171266527464529, -0.005695324615621816, -0.0001228375651903424, 219576000000
-0.021490230859373308, 0.004874814377052202, -9.939938339279759e-05, 219581000000
0.00946231870378635, -0.004235383391205544, 0.00010720808623508086, 219586000000
-0.10961096430262081, 0.01701935124229411, -3.739863947801886e-05, 219591000000
-0.04966015215760133, 0.010141562433042517, -0.0002603113263259333, 219596000000
-0.046638368365448, -0.0011249911213432862, 8.953088214697427e-06, 219601000000
-0.08814865556003076, -0.002598234100466437, 0.0001787631845922859, 219606000000
-0.03578095976414795, 0.010475171927567119, 7.658252172241732e-05, 219611000000
-0.06085983812090612, 0.014502337183543268, -2.538489643643412e-06, 219616000000
-0.07081170942422971, 0.011363900051860804, 3.149293810000058e-05, 219621000000
-0.010764055643059675, -0.009282641860151312, 0.00013611891943760286, 219626000000
-0.10590580095324521, -0.018352841579229492, 2.1556400131242415e-05, 219631000000
-0.06286666390469871, -0.03497026716315773, 0.0002445970875554761, 219636000000
-0.000573766312659315, -0.01760981551098325, -0.0001624215387965572, 219641000000
-0.0750621007050459, -0.0006630235861822941, -0.0002254447714327, 219646000000
0.31556987438920286, 0.01506460324685381, 3.08047470121952e-05, 219651000000
-0.04330160867432982, -0.0003169482297847541, -0.0003123475823982853, 219656000000
-0.041018593418972, 0.020965025694948403, 7.508733019754256e-05, 219661000000
-0.0001909798358497028, -0.02013351155966062, -0.0002951182531781351, 219666000000
-0.06852788165441445, 0.010075065926967892, -0.00027612412945523043, 219672000000
0.01071001458329517, 0.019887439834140708, -0.00017756188065240968, 219677000000
-0.051219566862304874, -0.02201956760070392, -5.9099390403547514e-05, 219682000000
-0.024662265073570087, 0.011066260959529428, -0.00017735422707496846, 219687000000
0.01602198759897148, 0.008127379830989948, -0.00033163664664874053, 219692000000
-0.09734935019681719, -0.01982433848288501, -0.00010516984807578567, 219697000000
-0.05981259070187167, -0.004967956819728065, -0.00010141248173197622, 219702000000
-0.019090981168853195, -0.01716193398109788, -0.00046240268169471505, 219707000000
-0.10563025205450613, -0.015489620259471894, 0.00032299779572751393, 219712000000
-0.03660282619270941, 0.0054877085187629735, 0.00022909370637178752, 219717000000
-0.10699398002968966, -0.007131997477010432, 0.00033168168941169967, 219722000000
-0.07437344944853382, -0.0037173015369588156, 9.568100223656312e-05, 219727000000
0.006752589562276836, -0.014199001329596278, 2.1201873937613482e-05, 219732000000
-0.07889396146329815, 0.003602846460105603, -6.669082383155662e-05, 219737000000
-0.01660684842021462, 0.000793716754586038, 0.0005161022231963483, 219742000000
-0.03139432151993956, -0.007793064563569108, 0.00011222690750012852, 219747000000
0.2933301498805492, 0.007295255470358325, -0.00033887445756275957, 219752000000
-0.04669290028000231, -0.007723571089893663, -5.215040783194657e-05, 219757000000
-0.05189370892731112, -0.01411601765135588, 0.00033196803849737416, 219762000000
-0.09351137246797102, -0.008341186615265787, 0.00016785655731517624, 219767000000
-0.01934717039181421, 0.03712001026379654, 0.00025563142368786813, 219772000000
-0.08312633099588268, 0.0011952406342415488, -6.783397481805833e-05, 219777000000
-0.10387798545779081, 0.04328151815777718, 3.181522360755921e-05, 219782000000
-0.058419942473098806, 0.004012648302807355, 5.606643368316766e-05, 219787000000
-0.022886807463619072, 0.002971128558440983, 0.00020777743122763444, 219792000000
-0.058779880259540694, -0.001599025490247513, 9.963159053915459e-05, 219797000000
0.009692603569938087, -0.014568738546800453, -4.008275934081995e-05, 219802000000
-0.08722943132907666, 0.004006253021794649, -0.00044033779790717426, 219807000000
-0.07509050313263739, 0.040413063507335034, 0.0002788749197690834, 219812000000
0.011420983641387805, 0.011278331010259964, -0.00015794292869848457, 219817000000
0.22398115979368674, -0.00245456121774534, -0.00032070277279180924, 219822000000
-0.05888215416012669, 0.0040848115262942805, 7.187349276601202e-05, 219827000000
-0.050488905408217585, -0.013452539376202666, 2.2007119976937867e-05, 219832000000
-0.05744393331372041, -0.016498615167063295, -6.502346277971909e-06, 219837000000
0.011060267508013834, 0.006771807748356811, 0.0002782336307307349, 219842000000
-0.09339590700813012, 0.01648779891491975, -0.00015444263105676495, 219847000000
-0.02432000623125853, 0.011406199815035736, -0.0001782844983104906, 219852000000
-0.007032969739358273, -0.003937455563689595, 0.00019194097475740262, 219857000000
-0.11290256791408264, 0.01172389672013098, 7.182029311675752e-06, 219862000000
-0.05502496360450421, 0.029728987889722915, -4.252931750472969e-05, 219867000000
0.006062834913302884, -0.016217927066127433, -9.124094864035683e-06, 219872000000
-0.11093169945832587, -0.0025123956695633897, -0.0003188333241124806, 219877000000
-0.059723876960933696, -0.007273274235493869, -0.00027669662491051927, 219882000000
-0.008440928468036409, 0.0115549121302679, 0.00010692839325365642, 219887000000
-0.10631464011520934, 0.0393153072443742, 5.784967613546962e-05, 219892000000
-0.07611860262731773, 0.01146626283267961, 0.00038885460699184915, 219897000000
-0.011391071524097365, 0.017738282009293393, -0.00017153067874763902, 219902000000
-0.10446234117526185, -0.020571651101957775, 0.00020466739945455237, 219907000000
-0.0031459794377982145, -0.013995881517357322, 0.00027968465254094466, 219912000000
-0.02612167780772144, -0.028639259702953952, 8.381269374796067e-05, 219919000000
0.23179317563808843, 0.016218985116983914, 5.6255813554372906e-05, 219924000000
-0.057434131217246734, 0.023704330300551923, -8.28428604989788e-05, 219929000000
-0.04490208390688159, -0.046039771109895614, 9.835558169690743e-05, 219934000000
-0.07171695503754943, 0.00022695259461374864, -1.0682041152838082e-05, 219939000000
-0.05134458863063925, 0.002680097929548474, -0.00016769100888799682, 219944000000
-0.06256840475936155, -0.00790663263927186, -0.00023733538256162567, 219949000000
-0.06602938094025625, -0.013701064383118801, -0.00028668737218751306, 219954000000
-0.051884745038457525, 0.023192150751372497, -0.00028723596770752457, 219959000000
-0.05375099309484885, -0.033869592556151545, -8.112718838746163e-05, 219964000000
-0.047596268998594315, -0.005197595140460192, -0.0001119977217824484, 219970000000
-0.014999750817274695, -0.0003485390366249942, 0.00012895223002754616, 219975000000
-0.08631008643409599, -0.025699867689111228, 0.0003062081438260607, 219980000000
-0.04610540281616642, 0.017543552074078164, 0.00010802927027103097, 219985000000
-0.01820558977186383, 0.010740521460964804, -0.000135277906646197, 219990000000
-0.09490243846995272, -0.0026286386166256594, -0.00022845135648082333, 219995000000
-0.06565608579701683, 0.015022469448751114, 1.2834454680882501e-05, 220000000000
-0.02235722173014183, 0.01858383068118018, 3.498546325059812e-05, 220005000000
-0.10647546930055718, -0.008443415767668272, 0.00025362041494140136, 220010000000
-0.04951393762497944, 0.034776649859016774, -0.00013574320991415205, 220015000000
-0.014633724449278674, -0.0013524237972374047, -1.4427996468243813e-05, 220020000000
0.2743798388513187, -0.011501281098401046, 5.644476863261451e-05, 220025000000
-0.06725055931686569, 0.018007089453588226, 0.0001243299036872961, 220030000000
0.02087633700442164, 0.008281588678146925, 0.00019804892474238202, 220035000000
-0.10199867438487371, 0.002315503559834312, 0.00046380215775863247, 220040000000
-0.05337885460570227, -0.020982323345023667, 0.00014034156852493944, 220045000000
-0.028368292119948704, -0.010425151407389917, -0.000331851306351369, 220050000000
-0.04712236423150946, -0.004835822674529221, -0.000437690218592606, 220055000000
-0.02230768633886558, 0.02233168586755359, -8.054012224784355e-05, 220061000000
-0.10987441243942858, 0.01575972513318072, 0.0002456569701442749, 220066000000
-0.042629525969672885, -0.0025363969761356083, 9.928018944462242e-05, 220071000000
-0.04229349361900807, -0.0035039644144580742, 0.0001264229427663913, 220076000000
-0.11571281314600114, -0.01832725363047598, 3.199785560901442e-05, 220081000000
-0.036037513570850645, 0.007588681309238969, -0.0001247056873306631, 220086000000
-0.11353152864122207, -0.005482146501748712, 7.931644573531716e-05, 220091000000
-0.06449907457994856, -0.0063782777745233455, -0.00013892794142906595, 220096000000
-0.029330624636525266, 0.0016426453940481967, -0.0001579789570612857, 220101000000
-0.08954742983592393, 0.009164607687207723, 0.0001685941054235679, 220106000000
-0.04162176246074478, 0.01935592813657263, 0.00014478035030696245, 220111000000
-0.0011934716767114696, -0.006601172634204395, 0.00014627761461007005, 220116000000
-0.1117747778185215, 0.00395603687830944, 0.00016596657829912956, 220121000000
0.33726277932612897, 0.002015097902905493, -0.0002939830119653164, 220126000000
-0.0020816299517857637, -0.020141372973000105, 0.00012200249666651805, 220131000000
-0.12359099984972424, 0.0014144471501134253, 0.00017941074321385983, 220136000000
-0.08605870193066269, -0.036878163817348354, 0.00020739271507438982, 220141000000
-0.015399371360210358, 0.023509115742402865, -3.5135307685756656e-05, 220146000000
-0.09901210247255177, -0.008570447675816571, 0.00010008262619169802, 220151000000
-0.04786700914771354, 0.008437448330021078, 0.00012310551231147388, 220156000000
-0.020620573092458544, -0.0013176033432902353, 1.2892852492259237e-05, 220161000000
-0.0887552652821556, 0.004417478435027048, -4.2923831584974284e-07, 220166000000
-0.029955930475359188, -0.016151502445383468, 8.548988719698604e-05, 220171000000
-0.10097654602732738, 0.013159289728177714, -0.00026671838238490634, 220176000000
-0.05002894962119088, -0.019994287669070184, -0.0001220646295294624, 220181000000
-0.03966162363787114, -0.0227294486499642, 5.3385295293773135e-05, 220186000000
-0.08800312179157771, 0.012450834260875407, 0.0001487400519344503, 220191000000
-0.027972640726909324, -0.013671150472714801, -0.00015189296388412008, 220196000000
-0.0484875932396936, 0.0017626170243857302, 0.0001184343785846986, 220201000000
-0.0934222780492002, 0.0051497289848334, 7.448894756870995e-05, 220206000000
-0.06324520882485113, 0.009312744053733715, 1.387336701289679e-05, 220211000000
0.003631552325192239, 0.002895970849601188, 5.500294438667518e-05, 220216000000
-0.07414103860645717, -0.003005515777001155, -0.00017397262276608688, 220221000000
0.33907975007939295, 0.010145050495873924, 0.00024794024804544013, 220226000000
-0.10117054772279967, -0.02730623979098494, -0.00018257178522329228, 220231000000
-0.08689064106787059, 0.017078988166290058, 0.00019756422816547388, 220236000000
-0.02506908691121624, 0.011062625003608165, -0.00016770993344186787, 220241000000
-0.10679864922103943, -0.014425208592350613, 0.0002196527980635128, 220246000000
-0.022466571872999525, 0.024325935221359143, 5.981147113539569e-05, 220251000000
-0.027892682129152205, -0.012114570676638904, -0.0001567424160118614, 220256000000
-0.07496074336703722, 0.018919418467211756, 0.00025690427675067714, 220261000000
-0.05661309534619461, 0.016084232782649425, -4.8139329686427316e-05, 220266000000
-0.0038169591339808732, -0.03357751287730528, 5.490859584971138e-05, 220271000000
-0.08389910417984134, -0.0211003114058876, -0.00011794092111159286, 220276000000
-0.03052665857839445, -0.0017659171073859858, 1.3255816679237706e-05, 220281000000
-0.10314371501429401, 0.015821283430697115, -0.00020870711974049937, 220286000000
-0.06623418452757086, -0.009454568567780859, -0.00016166249391526245, 220291000000
-0.005353869984391179, -0.02147755839250167, -0.0001308482199671147, 220296000000
-0.10194033158965267, 0.026078344310665594, 0.00010235847026730329, 220301000000
-0.02426306295280698, 0.005838273429441568, -0.0005065746460754039, 220306000000
-0.11417977802917832, -0.005543337805081972, -0.00010870621652711065, 220311000000
-0.09586658796933789, 0.014162212416611022, 0.0001731481276165752, 220316000000
-0.04024543679333968, 0.013565253755603654, -0.0002404641464857882, 220321000000
-0.09473970108743288, 0.02284835359852032, -4.433787560566475e-05, 220326000000
0.3452109522962323, -0.025214939826297758, 0.0001792098759766055, 220331000000
0.014828716354897981, 0.011566974140779857, 0.00021872168020159913, 220336000000
-0.08673024554805887, 0.01975455947626141, 4.104592709664836e-05, 220341000000
-0.006312155532148062, -0.016580852449837227, -8.193088059430675e-05, 220346000000
-0.13013144434284446, -0.02089454477672545, 8.29513356015862e-06, 220351000000
-0.04403988473961478, -0.03200883416637815, 0.0001671522962852941, 220356000000
-0.014817228975457742, -0.024903066855760245, -8.250642557179711e-05, 220361000000
-0.11549056614622226, -0.029026756544629884, -0.00015015417595428407, 220366000000
-0.028929054634921653, -0.007119026784683385, 9.445175528307256e-05, 220371000000
-0.0922649303848502, -0.028849823803745785, 6.3090082914272e-05, 220376000000
-0.06794105327942818, -0.026459788894363845, -5.0514939623127126e-05, 220381000000
-0.019686573074699242, 0.0032419995228135127, -0.00027447308282225764, 220386000000
-0.10345808851684349, -0.001961726676218947, 0.00010141022067523144, 220391000000
-0.06055935421641076, -0.023575234651559737, 0.00027673205630325944, 220396000000
-0.08074542702271123, -0.009776420584410049, 0.0003196734257763385, 220401000000
-0.037019618721625305, 0.013326857201151898, 6.361302114432663e-05, 220406000000
-0.008921898655429961, 0.015660261973228663, -0.0003544876403306557, 220411000000
-0.08357401808773798, -0.013113332726245748, 1.1534087573223033e-05, 220416000000
-0.03495543957455402, -0.006729450991457041, 0.00026277379346386585, 220421000000
0.0020204129754918393, -0.012050372728103245, -0.000172888431426887, 220426000000
0.29634118234260537, 0.03333264894472419, -0.00012524476142329412, 220431000000
-0.04315614730415834, -0.004538455273681388, 0.000329742753410438, 220436000000
0.017004882799154658, -0.007744628930761255, 0.00014009642858795317, 220441000000
-0.1120200128374122, 0.03740910152294416, -8.598879145967287e-05, 220446000000
-0.04776136324750133, 0.017184488834483657, 0.00023936527607692142, 220451000000
-0.0627696018777759, -0.005283929043363211, 0.00010229006438720227, 220456000000
-0.06302550743011105, -0.016493273517565393, -1.8318960202559245e-05, 220461000000
0.01926556951919728, -0.008921769930427152, 2.658883971320773e-05, 220466000000
-0.09009999583981027, -0.008643825100606663, 7.09710437157098e-05, 220471000000
-0.06170009126866857, -0.01150182931325207, 0.0001329580976535824, 220476000000
-0.009095578121137891, 0.01875079835412078, 4.5135938581925716e-05, 220481000000
-0.11954566276931616, 0.008931797905965627, -3.808355916865707e-05, 220486000000
-0.052599175600114595, 0.011333763356226899, -4.3366243529266276e-05, 220491000000
-0.04235256060746625, -0.011852602032062107, 7.42083036949431e-05, 220496000000
-0.1358993029555783, 0.0006304880296605381, -0.0004481985124626774, 220501000000
-0.08635512954222177, -0.007375192607528885, -0.0002562801375496951, 220506000000
-0.01963265478179578, 0.015829996915351797, 0.00014804708446870753, 220511000000
-0.11645871029822684, -0.01718407196691212, 0.00021483002916602517, 220516000000
-0.0636668542172879, 0.016415505033688355, 0.00024348672784592327, 220521000000
-0.06565206953025289, -0.020585694156850753, -0.0001488429088297324, 220526000000
0.25406008575414485, 0.007390817751965439, -0.00027868619293476234, 220531000000
0.017883721828134615, -0.008558052181420184, 0.00029971338302187117, 220536000000
-0.11190432056607215, 0.020536609898024742, -0.0002519732187233111, 220541000000
-0.037941322096541844, 0.020002796355250735, -0.0001677569590538355, 220546000000
0.02551898060134905, -0.024134062229085165, 0.000182469567484796, 220551000000
-0.11543984943839307, -0.010317101981650284, 0.00035661100368346494, 220556000000
-0.05438964667147292, 0.04302738850271877, 2.9880183355627717e-05, 220561000000
-0.020723951855001733, -0.002059476260476618, -2.757345794206336e-05, 220566000000
-0.08145426729522988, 0.008935571798768784, -0.00038196267726735034, 220571000000
-0.052409985404269166, 0.0058993866424721705, 0.00010504978858101195, 220576000000
-0.04634677344704027, 0.015900024501222368, 0.00020054000376739338, 220581000000
-0.060779115317281904, 0.02379429336044614, -0.0004628597725623177, 220586000000
-0.0313999608794429, 0.013586712791625587, -0.00028932683578915524, 220591000000
-0.10797330427381341, 0.007106314069555392, 0.0003171474339523683, 220596000000
-0.027479784009404876, 0.02035788176957374, -1.4208137424660297e-05, 220601000000
-0.0754616426961026, 0.01146848071577453, 2.8454987843368123e-05, 220606000000
-0.01812622873186523, -0.029226865020150653, -3.1998859012627036e-05, 220611000000
-0.05308373392937915, -0.01113445906918746, -7.209827328560549e-05, 220616000000
-0.07458032951376006, -0.003829680111901585, -0.0004092830893750438, 220621000000
-0.04645798732646263, -0.0047392171514728226, -4.647736237404458e-05, 220626000000
0.005703256278301219, 0.022223261525597747, -1.4583325755441943e-05, 220631000000
0.30606012376905145, -0.013374942633976044, 0.00020887345398748147, 220636000000
-0.058229129008553, 0.008874161555787132, 4.735879552067897e-05, 220641000000
-0.041155880853860426, -0.014230230965883888, -0.00014560729961546202, 220646000000
-0.061174096112932966, 0.009985519885904914, 6.662840569890204e-05, 220651000000
-0.029382619978415275, -0.01426873902806805, 6.239270454032773e-05, 220656000000
-0.136148584605388, -0.011008456810166552, 5.516033260738512e-05, 220661000000
-0.02538250481161863, 0.012033653040028871, 1.2419878888182293e-05, 220666000000
-0.014372186108224152, 0.004929227981697066, -0.00019888202773715122, 220671000000
-0.08063052302225727, -0.028586069415260575, 0.0003289706656584542, 220676000000
-0.05198449661204789, 0.0010281038401876025, -0.00015690302994418188, 220681000000
-0.044341943350082944, -0.030754696355675706, -6.03144228146822e-05, 220686000000
-0.0535955925602979, 0.02162215443756959, 6.408787074223114e-05, 220691000000
-0.005252680817640187, 0.006295273215797303, 2.869839456039983e-05, 220696000000
0.23812653906311024, 0.008293358515705822, 1.885209303101686e-05, 220701000000
0.014845505435105894, 0.012089162598294359, 0.00017770608756366863, 220706000000
-0.02476881498561717, -0.004413220126538251, -8.222995471989238e-05, 220711000000
-0.1195962690578106, 0.005554561030066522, 0.00012494537552098237, 220716000000
-0.046728912470502426, 0.00880528819996184, -0.0004642188500359355, 220721000000
0.012362895872834553, 0.0229933212515956, 6.532424836848535e-05, 220726000000
-0.08439955607061736, -0.009453795223386685, -9.169103377791006e-05, 220731000000
-0.05222400825849272, -0.02960561899581991, 0.00032778416328295076, 220736000000
-0.0365576878201474, 0.003351237674416484, -0.00034835522719766596, 220741000000
-0.07722239309041948, -0.007577660297504132, -0.0002506416366428646, 220746000000
-0.015375740135555427, 0.004765122109320465, -0.00032256374219677213, 220751000000
-0.02110571178084581, -0.0025681979083203824, 0.00029545849881517863, 220756000000
-0.0835348965770373, 0.027742853310049866, 0.00020544737955653945, 220761000000
-0.07886242440238532, 0.007053850237991741, -0.00010445703883193839, 220766000000
-0.04117939822057237, 0.032509222871395696, -0.00021497466888682664, 220771000000
-0.11750736820577706, 0.024157866384867326, 0.00034642770567895186, 220776000000
-0.06489802057440298, 0.0010404610752892517, -0.00025582906352043344, 220781000000
-0.041357781187168166, 0.016724956681012808, 0.0002915594405969985, 220786000000
-0.10788583568486071, -0.023373771708033307, -6.585863711053838e-05, 220791000000
-0.0566370318453387, 0.0018813092484012504, -4.955374369906942e-05, 220796000000
-0.030382013496798956, 0.015730155706484186, -7.54810353533444e-05, 220801000000
0.3159045888214969, 0.007084476839754548, 0.00026186848690190243, 220806000000
-0.07690825190130149, -0.00991854655068818, -7.579713726148448e-05, 220811000000
-0.01730797386954388, 0.016469030170848036, 0.0002291129528973953, 220816000000
-0.07453620364129887, 0.013747111907855386, 0.00021542200672363394, 220821000000
-0.027540676913949094, 0.0017032915241173804, 5.648563540692607e-06, 220826000000
-0.002139502554365981, -0.017071730069840984, -0.000374217186383042, 220831000000
-0.12493692737084354, 0.00288411728574611, -0.00016551597591067712, 220836000000
-0.07968243621167127, 0.007079271194246694, 0.0001440034417894474, 220841000000
0.010449962962209056, 0.015864116380774566, -0.00029080912866777056, 220846000000
-0.10250177371664446, -0.02417156737628995, -0.0002896393889988054, 220851000000
-0.08012923732011012, 0.007598926265582577, -3.1972975160039454e-05, 220856000000
-0.02748441116718822, 0.021904864944851384, 0.0002123530735850973, 220861000000
-0.10948244014168108, -0.01278456068720666, -0.0003352188859688768, 220866000000
-0.02981822604770538, -0.014783591584626839, 0.00020207977682245557, 220871000000
-0.03014304670941808, 0.018078008832316937, 0.00010245680599913279, 220876000000
-0.07194600658013259, -0.007897170247124228, -2.6180178752189364e-05, 220881000000
-0.001217913034887155, 0.0111643755904243, 0.00021203335225199557, 220886000000
-0.10211222121670178, -0.008885301326712025, 0.00027148769718149043, 220891000000
-0.07541448633873489, 0.02232281314096628, 0.0001920615328213076, 220896000000
0.0009734871913715804, -0.03272981045872833, 0.00017420541030962276, 220901000000
0.3020070163328887, 0.001488894381382259, -0.00017387377202512968, 220906000000
-0.028615108298979394, -0.012887817153363963, -4.1043909667124437e-05, 220911000000
-0.11959531146291669, 0.043929429646363136, -0.00016288940354744063, 220916000000
-0.046428476797524904, -0.028359477268706117, 8.247374483690722e-05, 220921000000
0.0016524056313111952, -0.005501720700354868, -1.2286719253200988e-05, 220926000000
-0.11765626487769582, -0.02011351455135271, 5.67285296633343e-05, 220931000000
-0.042934220298683025, -0.04297688056325119, 0.0004977584761754992, 220936000000
0.0004776129325030423, 0.03355027071234918, -1.5762581959426974e-06, 220941000000
-0.12414628915079205, 0.01710919834637584, -0.0003495523282979132, 220946000000
-0.03992708543831119, -0.017286240934490164, 0.00010110504761313616, 220951000000
-0.0035591040674640513, 3.588169794090123e-05, 0.00021135208219571146, 220956000000
-0.11801641863020622, 0.013439796454838004, 0.0001193406435750314, 220961000000
-0.08164977801638054, -0.03994683780544308, -0.0002296728374675419, 220966000000
-0.008691265632304403, -0.03630944411113334, 1.0846887862298785e-05, 220971000000
-0.11658458496548513, -0.03761796013470508, -2.819222043954978e-05, 220976000000
-0.04746195072819456, -0.0006882630011984686, -0.00011082940251165358, 220981000000
-0.07792097087430006, 0.0006676706312699407, 0.0002640818175522037, 220986000000
-0.0828029127404214, 0.0024916859399942122, -2.0968644235611066e-05, 220991000000
-0.04355838761509369, 0.026441408369631613, 0.0001137967084844682, 220996000000
-0.09121749064629263, -0.01914391402516416, -5.6775089365691535e-05, 221001000000
-0.0524964896477041, 0.009755959970470995, 0.00018027756304897524, 221006000000
0.3907179232209341, -0.0053141220543875475, -3.2757408312034416e-05, 221011000000
-0.11832229542448693, 0.007225116104379178, -9.666675249089934e-05, 221016000000
-0.0616266783234451, 0.00584017077791982, 0.00015908873785981895, 221021000000
-0.03943177752430082, 0.016504388893518896, -5.473126361119398e-05, 221026000000
-0.05336263674216744, -0.021643639850127364, 0.00018176728828881635, 221031000000
0.010910553630688588, -0.007535210377342011, 0.00024389397707923975, 221036000000
-0.11068468122673907, 0.009565548671231525, -0.00020737140722814604, 221041000000
-0.04426287715591862, 0.03066125634226581, 4.401086459209664e-05, 221046000000
-0.0014128779626823244, 0.014026845750068316, -1.871190337603245e-07, 221051000000
-0.10780264794937613, -0.014065719277711303, 0.0003508136203851317, 221056000000
-0.03449371303326407, 0.047293740253933354, -2.6506345475581895e-05, 221061000000
-0.06158421813203041, -0.017914401742941014, -4.810213745771415e-05, 221066000000
-0.06500265293915176, 0.024237837825635027, -0.00034097998669140695, 221071000000
-0.011595318553429792, 0.008817431743298635, 8.67407200556602e-05, 221076000000
-0.07773096222624704, 0.022655751176269615, -7.046341671480713e-05, 221081000000
-0.07770597830014445, 0.013160645505017537, 0.0001466185812104983, 221086000000
-0.05953918251376975, 0.0029565377100515535, 0.00010816045231854329, 221091000000
-0.002037757212911724, -0.032310424787314336, 0.00020239386310354305, 221096000000
-0.12971956314442926, 0.0003956889472347242, 0.0004155575416687833, 221101000000
-0.04700749279507065, 0.02125783440524472, 0.00015239571138956005, 221106000000
0.38588208553102116, 0.002449950161392102, -0.0001966764934825022, 221111000000
-0.13554608531768997, 0.002223806581812861, 0.00012098588366120326, 221116000000
-0.06278367294608303, -0.0021691285396118086, -0.00025272506093054444, 221121000000
-0.014585037666355211, 0.004418472567169108, -0.00024587085445629844, 221126000000
-0.10236298432337436, 0.004934107713764562, 0.00022632584508643265, 221131000000
-0.06595223598798121, -0.03183533451853653, 0.00022285255029319887, 221136000000
0.01264375858434072, -0.005243578159149942, -0.00024493480305485285, 221141000000
-0.08935589496399848, -0.011824499033970343, 0.00031565434115567837, 221146000000
-0.050648257586987, -0.009925384462967398, 0.00014571006649829034, 221151000000
0.0008579985160477848, -0.009882936378090703, -2.9409156107734604e-05, 221156000000
-0.06358365752423548, -0.017049350949604643, -0.0003008267622478699, 221161000000
-0.05365417838932337, 0.008982842786603419, 0.0001960287393382462, 221166000000
-0.012504986611787365, -0.02275410480894838, 0.0001020674077603102, 221171000000
-0.07033406358218704, -0.023669227345651446, 0.00017617896411326856, 221176000000
-0.016453415104085004, 0.005438313149955127, 0.00012205985854639181, 221181000000
-0.0639876947422004, -0.0006487157316517443, -9.582395452223467e-05, 221186000000
-0.07336808096622698, 0.029905765447234445, 9.737824252486273e-05, 221191000000
-0.033793097490351476, 0.0063934867915675115, 0.00019616078713033787, 221196000000
-0.09724934316602221, 0.025246258456692525, -0.00018745310773805196, 221201000000
-0.09051696193352504, 0.010711107805811255, -0.0002118697019807979, 221206000000
0.3059615443410931, -0.03641655645827854, -1.2077421356705711e-05, 221211000000
-0.008372618641784037, 0.014271261571676745, 0.00018805504771272067, 221216000000
-0.06611981746237644, -0.015111410080642741, -3.191415611984991e-05, 221221000000
-0.011483723427628358, -0.0004799512544137575, 3.768656481679912e-05, 221226000000
-0.09909358506515936, -0.009864359358799238, -0.00010027732053215946, 221231000000
-0.09946039558024328, -0.020544838515545873, 5.286831941257966e-05, 221236000000
-0.04770745003528894, 0.00021830724649342088, 0.0001276475233193121, 221241000000
-0.07601473300866352, 0.017873040079020498, -8.770096140519755e-05, 221246000000
-0.005554791468553896, 0.010354750634343901, 0.000235865123900124, 221251000000
-0.11753242145114098, 0.022624118651331043, 5.761696403118093e-05, 221256000000
-0.03587440462080675, -0.02624685576965604, -0.0003018526330944388, 221261000000
-0.03857394843134185, -0.0072476925583299795, -5.9412780434503006e-05, 221266000000
-0.11691548520871771, 0.012874077981044299, 0.00017041903816688347, 221271000000
-0.07560635923840016, 0.011755476914108172, 0.0002652207011377916, 221276000000
-0.04929949857167628, 0.0012893090804245815, -5.001240173953806e-05, 221281000000
-0.030741267564937357, 0.017022171426646783, -0.00021951420593403163, 221286000000
-0.008595744430775702, 0.015452947799548634, 8.434372521736055e-06, 221291000000
-0.0820561296613765, 0.017983401565852642, -5.104430603894771e-05, 221296000000
-0.04926427690177653, 0.02259464859379106, 8.72307546374762e-05, 221301000000
-0.042947334733684894, -0.006857537694577895, -9.305921321447829e-05, 221306000000
-0.04545484034051042, -0.0020156965289182304, 0.00012738472212538388, 221311000000
0.4012252598988849, -0.011787601477245762, -2.485072669158228e-06, 221316000000
-0.11545628558558028, 0.0247339044608987, 6.1071008932981845e-06, 221321000000
-0.04538756844807105, 0.026066855813295098, -4.972175961956779e-06, 221326000000
-0.0297534864221461, 0.0017082850844551693, 0.00023722235293325292, 221331000000
-0.07050695927984729, -0.023648153712827163, 5.996932171569885e-05, 221336000000
-0.029460707927455518, -0.007019472995865622, 0.0002636864065430852, 221341000000
-0.10341955209247419, -0.02822320141267537, 0.0003079519660070644, 221346000000
-0.0453472204068229, 0.008300970800851336, 0.000200750012160652, 221351000000
-0.003525114038635451, 0.03231585878134164, 7.719805938155775e-05, 221356000000
-0.08134138011629431, 0.010605413629135224, 1.5988378268656703e-05, 221361000000
-0.045241013242332435, 0.007964081485658745, -3.19295606403053e-05, 221366000000
0.0032616616896017463, 0.01396283937527459, 6.205503930524325e-05, 221371000000
-0.08905434817980723, 0.007541491068634316, -0.00015145271702335467, 221376000000
-0.01801684341006178, 0.033371639799820996, -0.00014175836218220794, 221381000000
-0.08328564846390969, 0.03393652969629492, -7.220185316671816e-05, 221386000000
-0.04089547482529647, 0.028295602562364214, 0.00044479286993048643, 221391000000
-0.03488244210047945, -0.017059615273266774, 5.448946133317266e-05, 221396000000
-0.1091937064654895, -0.001976815463240589, -0.0004276505331815671, 221401000000
-0.041620329659739, -0.011947663285696717, -7.189428806423743e-05, 221406000000
-0.031248936235409912, -0.004745396378265545, -9.431536949301844e-05, 221411000000
0.31034403179055425, 0.020501426553026652, -5.531348542663016e-07, 221416000000
-0.034762140435130554, 0.02205713607574636, -0.00010708879908921929, 221421000000
-0.0003116521861234976, -0.00942128165764203, 0.0001383527758319926, 221426000000
-0.12414132761381068, -0.012016317206471776, 0.0002250417286302088, 221431000000
-0.0821246989032934, -0.008938066052879907, -4.3422187989786056e-05, 221436000000
-0.04170955577628695, 0.0012768335651924933, 9.91513453290594e-05, 221441000000
-0.09637348122468796, -0.0012707338699773398, -9.991999194881714e-05, 221446000000
-0.018376739260571498, -0.026632341672015464, 1.5040969059958056e-05, 221451000000
-0.0757554340893149, 0.013919482655910143, -5.8523877402425286e-05, 221456000000
-0.045679269900508725, -0.04539606344782693, 0.0003867775096458101, 221461000000
-0.0004255088214119105, -0.026058555478673386, -0.000445741003968819, 221466000000
-0.10084111618047467, 0.01521937330101928, 0.00010228456861722672, 221471000000
-0.0363589169869444, 0.005979985404412756, 0.00010665430919811192, 221476000000
-0.08343036831093598, -0.0055093146127008575, -0.0001905156006680903, 221481000000
-0.030226900055865348, 0.011832601953962966, 0.00015959147912496835, 221486000000
-0.015241267012691913, -0.0012715918421546354, 0.0003154001773386033, 221491000000
-0.08072694721795187, -0.007404229732776117, -4.718793273324897e-05, 221496000000
-0.07690155026369508, -0.003081548530541271, -5.593564630460557e-05, 221501000000
-0.06457032384299954, -0.0008223134104645119, 8.967370593427869e-05, 221506000000
-0.09376890599696017, 0.0013387091118380599, 0.00021296638493175195, 221511000000
-0.02185761838093844, -0.0010682287726363772, -0.00043260763330955074, 221516000000
0.33448175099249633, 0.007017826355024386, -9.502649658088002e-05, 221521000000
-0.0767550733269294, -0.027581932895313105, -4.642884007011011e-05, 221526000000
0.007599278287724734, -0.00458601433979109, -0.00010154649202152086, 221531000000
-0.13551260522540315, -0.034788581824187106, 0.00020456045280656712, 221536000000
-0.02657424842488764, 0.017548178652386642, -5.510479181768314e-05, 221542000000
-0.1061628433003409, -0.02233183063113424, -0.00012155816753519281, 221547000000
-0.04478886452537356, 0.004944975547530452, -0.0001530913284941614, 221552000000
-0.0069775991615153715, 0.0022332108372155094, -3.627365526371775e-05, 221557000000
-0.11570034337560034, 0.02224143244050572, -5.731925348122316e-05, 221562000000
-0.024133530445383994, 0.023760292361730044, 0.0001665036905401126, 221567000000
-0.11782717178508118, 0.010031666332675711, 8.17495941641931e-05, 221572000000
-0.08071710218572518, 0.0028473831334369522, 0.00014248811094346315, 221577000000
-0.03314505301222938, -0.006080556134696693, 0.00033397086969868417, 221582000000
-0.09161310135922314, -0.004914617228101007, -9.886199485031218e-05, 221587000000
-0.06768438817804215, 0.007148246321575392, 0.0002194633794292309, 221592000000
-0.057225107547514746, -0.005675137243912887, 0.0002561193195330179, 221597000000
-0.09531787994929265, 0.0011125389363805043, 4.455055316619713e-05, 221602000000
-0.013055957755049035, 0.01542158023088236, 0.00016637180939234648, 221607000000
-0.08873655874268499, -0.02400936372849443, -0.00020963878901473452, 221612000000
-0.1054563902506751, 0.05125949511691647, 6.23735903020299e-05, 221617000000
0.0020441432676820692, -0.012403443453978745, 0.0004411181165989663, 221622000000
-0.08644108587203289, -0.019763242569847277, 0.0002617733417439725, 221627000000
-0.02841387513408199, 0.0005018101063530715, 0.0001742062374397711, 221632000000
-0.08387083704987644, 0.008374664385456445, 7.785188175633266e-06, 221637000000
-0.06884015221737383, 0.0011300576176530017, -0.00031856137278703695, 221642000000
-0.030185209098426282, -0.00641064548325436, 0.00015564689385249444, 221647000000
-0.06612607289751418, 0.026270489578618956, -0.0004131103989564483, 221652000000
-0.04498761018095165, -0.019513132919158037, 7.167502265765088e-05, 221657000000
-0.041368143424935666, -0.0007351592688687665, -6.194119656456169e-05, 221662000000
-0.08358266931551946, -0.00800140468143856, 0.00027418148461156276, 221667000000
-0.020058485187902785, 0.024682478375622565, -0.00014856695465479712, 221672000000
-0.01961152518661261, 0.006420463091196491, 0.0001115928843376239, 221677000000
-0.11009635964349346, 0.012961018670233472, -0.0004481551488743658, 221682000000
-0.03585386743295027, 0.035097286472070534, 4.671861998330091e-05, 221687000000
-0.02155443661533657, 0.027438553504878345, 4.9052222140043906e-05, 221692000000
-0.06569870678525605, 0.039387296702286974, -0.00012339744232269252, 221697000000
-0.05100212758144199, 0.006505909143417326, -0.00010609874782181773, 221702000000
-0.03855112430181712, -0.018139937375016305, -9.471004984834787e-05, 221707000000
-0.06795071183916153, -0.027398911169808866, -0.00028291628951775273, 221712000000
-0.0480862470465396, -0.0028192832849599195, 0.00042524751689095334, 221717000000
-0.034709327289327796, -0.020185705299986815, 4.007637453059961e-05, 221722000000
-0.05535663878081238, 0.021841488836845446, -0.0002994678556640723, 221727000000
-0.07785066659522112, 0.007649279343286684, 0.0001709107939579424, 221732000000
-0.03183306727414982, 0.0012881464615414864, -0.00011144476172400924, 221737000000
-0.05246261971763207, -0.00978179582639228, -2.791089263031359e-05, 221742000000
-0.05303306274586497, -0.011173927649028048, 0.000166935098860049, 221747000000
-0.05554752680507623, -0.008420293118287011, -0.000427657184228532, 221752000000
-0.07392586694834448, 0.019437332919264347, 9.72982277671835e-05, 221757000000
-0.05721731729784141, -0.023580832984058133, -5.020920661683956e-05, 221762000000
-0.020025772822736505, -0.010556659710502207, -0.00026388520110585197, 221767000000
-0.08958576357012316, 0.003416849575775656, 0.00020083077552208946, 221772000000
-0.060232652920091084, -0.011952557338697734, 2.3355855765047918e-05, 221777000000
-0.0748820758112584, 0.005784366416493335, -0.00013773305360941803, 221782000000
-0.05483198556187624, 0.010368086823813873, 4.863629983196783e-05, 221787000000
-0.044511353805269244, -0.0047409072320935275, 4.939108471105822e-05, 221792000000
-0.03737354617079067, -0.020236936431513922, 0.00025021048107165707, 221797000000
-0.008613058671584385, 0.0026579259713150447, -7.650708581223143e-05, 221802000000
-0.08325161588243513, 0.00015728821533978951, -2.873694980729932e-06, 221807000000
-0.054419281486624685, 0.02698957311246038, 1.4217271975853115e-05, 221812000000
-0.05918589232664771, 0.026909889286176304, -2.0183281734846667e-05, 221817000000
-0.06718326103913552, 0.030094640370301524, 2.798735800616572e-05, 221822000000
-0.05184917277039249, 0.014411254257842997, -6.132625442058848e-05, 221827000000
-0.04578584536443301, 0.038587777155064194, -0.0003252890639316847, 221832000000
-0.04760921807159566, 0.015350780137833225, -1.6768236216333833e-05, 221837000000
-0.054059414641122766, 0.018566060565605162, 0.0001180588517064855, 221842000000
-0.08547688105430429, 0.0031065778680779053, -0.0003211366876018043, 221847000000
-0.062033063968108405, 0.00718531210920651, 0.000264576695135622, 221852000000
-0.04188756492657196, 0.03121321691456064, -0.00010689673368480227, 221857000000
-0.05613391697933036, 4.079087129891959e-05, -6.89029788560762e-05, 221862000000
-0.06590370133508386, 0.010880402439975454, -5.447813622150901e-06, 221867000000
-0.029244908444076092, 0.006398714242362252, -0.00013638445463194768, 221872000000
-0.11287617264357067, 0.010087066573728152, 2.2617244439627492e-05, 221877000000
-0.03246283828105127, 0.0011975965485489701, -0.0001842518041786015, 221882000000
-0.0769785307300092, 0.00867623152524177, -0.0006585834479246468, 221887000000
-0.05645504876039696, -0.03237066048899212, -7.22690910285835e-05, 221892000000
-0.05137232492401314, 0.00529578878011301, -3.935317230484331e-05, 221897000000
-0.07918986735110621, 0.0013963141291169852, 4.589301845426367e-05, 221902000000
-0.05536271300424767, 0.011503380032455856, 9.053453802968145e-05, 221907000000
-0.05886575955270079, -0.02523182808669099, 0.0003058705324080388, 221912000000
-0.06478891072262435, -0.005586173036333533, 8.971234328139713e-05, 221917000000
-0.05179641629019802, -0.004073568813720408, -0.00037613566367868025, 221922000000
-0.0642863906841169, 0.0020381020175374367, -0.00017999132952355328, 221927000000
-0.035911230568298175, -0.00770947542491197, -1.147434793813773e-05, 221932000000
-0.04146696393429312, 0.015179169117712067, 6.355774294789025e-05, 221937000000
-0.06559408265033305, -0.000866750279233061, -0.00025879208907866907, 221942000000
-0.03354017353340997, 0.005319506681241828, 0.0005839092442405224, 221947000000
-0.04312721619714381, -0.019468179963269338, -0.00012479765694928938, 221952000000
-0.021672983692692493, 0.030072340908318916, -0.00025762797896372564, 221957000000
-0.06529393921635988, 0.030744173938636474, 0.00010612353253205112, 221962000000
-0.04928927929877379, -0.014983430280348006, 9.296642552467777e-05, 221967000000
-0.07139812165070437, 0.011106189888883608, 2.6634364518119898e-05, 221972000000
-0.04115985454214187, -0.0132685546825303, -0.00027355429907660746, 221977000000
-0.0990002161234219, 0.012973268024682462, -0.00019773755053885853, 221982000000
-0.07022331994445469, 0.025974825632952118, 0.00026654962245005985, 221987000000
-0.03447280611719992, 0.0063820663993386165, -7.576167008009396e-05, 221992000000
-0.07288639588357976, -0.0003199228760879814, -3.7268694573456865e-05, 221997000000
-0.03618878139210122, 0.04007201816085076, 9.944680384275366e-05, 222002000000
-0.03539318852412568, -0.016770175196226263, -0.00010612665619053283, 222007000000
-0.042871865730563855, 0.001979761658442839, -0.00014322292804896822, 222012000000
-0.05987292206356549, 0.005452856247641046, -0.00024208688928148238, 222017000000
-0.07657603422986353, 0.0010260566229050568, 0.0002989949993092789, 222022000000
-0.04609203433896001, 0.010805980558793563, -0.0001490747141559574, 222027000000
-0.044494557264506684, -0.012281275853177754, -0.0002982646468517054, 222032000000
-0.06184118917380842, -0.012256212597325886, -0.00015961135058380554, 222037000000
-0.057106601679751956, -0.027573064303382706, 8.685649977410202e-05, 222042000000
-0.05119119786433355, 0.044980319139051, -0.00013219809640934097, 222047000000
-0.05823849496433297, 0.00905248898534609, 0.00010489421404200831, 222052000000
-0.0478804704462424, -0.019223764068172, -0.0002296393420119389, 222057000000
-0.042160029238445036, -0.018601470072453906, 0.0001135602948162218, 222062000000
-0.07410496628358035, 0.024529349064861025, -0.00019790954765548074, 222067000000
-0.05151785281647723, 0.006587662040493824, -0.00010730244018462258, 222072000000
-0.03550765593929965, 0.003247426875219522, 5.242171046441453e-05, 222077000000
-0.041727644587316676, 0.019086247683705537, 2.2006402529365934e-05, 222082000000
-0.04448739462671535, 0.047544735094009846, -0.00011002868656747544, 222087000000
-0.05752590731672194, -0.038163651032348894, 1.649901043539363e-05, 222092000000
-0.07578972644403437, -0.004479585187818295, -0.000344510490284339, 222097000000
-0.0476709556388, 0.01593062134525029, -0.00020848000306400232, 222102000000
-0.056120781231973726, 0.016199940150254073, 6.730048710653673e-05, 222107000000
-0.07117497270621703, -0.018240981128699017, 7.785047821486814e-05, 222112000000
-0.06304271935971631, 0.023450707605501057, 2.289361437594351e-05, 222117000000
-0.07125871823687202, 0.01162326442138036, -0.0003601720109584768, 222122000000
-0.05946096828610857, -0.01957356329211455, -0.00013012962485752105, 222127000000
-0.07569686603079394, 0.0027319848017180806, 0.000260686252175543, 222132000000
-0.059920830283572944, 0.012444694829677324, -0.0003568990541734408, 222137000000
-0.035903045578902185, -0.0011082372701941502, 0.00015625705458065245, 222142000000
-0.046260289888957, 0.01330579612501496, 0.00028018192489334963, 222147000000
-0.04653972808671524, 0.023644329561604203, 0.0001799728906202465, 222152000000
-0.05296001777903859, -0.020829581992124424, 0.0001391519474522089, 222157000000
-0.06294268343454677, -0.026346249215189084, -0.00011378604400356064, 222162000000
-0.06476651669471153, -0.006655258460766141, 3.282600354800711e-05, 222167000000
-0.07715618286984621, 0.004714193010479595, -0.00021562010621226346, 222172000000
-0.0930946284123883, -0.02618740071162142, 0.00022068826644914923, 222177000000
-0.06601280578794572, 0.0015547188615622144, -0.00024871942327757656, 222182000000
-0.040598415963340795, 0.0304030035633577, 1.3933535016209815e-06, 222187000000
-0.047903867538863734, -0.0191177741926144, 1.4988837056464166e-05, 222192000000
-0.050825828350470566, 0.0016244666303814371, -0.0003642596448533603, 222197000000
-0.054805537247760744, 0.023992222551385143, -0.0002159164722674956, 222202000000
-0.04872437563752754, -0.0165063503419966, -0.00024295262060799195, 222207000000
-0.0016627108700408844, 0.013440666468202885, 3.0067504203958442e-06, 222212000000
-0.0492316821772713, -0.00577165484044084, 4.669815965098875e-05, 222217000000
-0.04712102842161679, 0.010655616674782235, 4.697469764088724e-06, 222222000000
-0.058497505873950806, 0.0028333325988968957, -0.00024655801712319394, 222227000000
-0.05699316855513384, 0.03744090483476489, -0.00012326139745132025, 222232000000
-0.06553719922727788, -0.01976728844004459, 2.974975160307746e-05, 222237000000
-0.07750695552271605, 0.0006380456432852148, 0.0002618009116700617, 222242000000
-0.07121463886627374, 0.002690994084780644, 2.0619210170231984e-05, 222247000000
-0.046493395880420486, -0.006594407064559127, 0.0003229932225975722, 222252000000
-0.06555017696359222, 0.023058674169219088, -6.1430367225313475e-06, 222257000000
-0.06062133925059457, 0.018778267957991993, 1.4242771266482336e-05, 222262000000
-0.02875609207151369, 0.0026604256182579922, -0.00011370264393474883, 222267000000
-0.07458708376657137, -0.015510073848803022, 0.00014086667657891048, 222272000000
-0.061336829703982354, 0.007320756699504747, -0.00018664432708482773, 222277000000
-0.08522954885598746, -0.009899787631836686, 0.00013143536060902453, 222282000000
-0.031461546913359915, 0.024246006939559722, -0.00015452557474373712, 222287000000
-0.08451648870170608, 0.021973800599433616, 0.00038017616816144996, 222292000000
-0.056489114255992345, 0.014169983236157101, 0.0003213444162399299, 222297000000
-0.03716711079566097, 0.004991179302443338, -0.00010246167448789097, 222302000000
-0.06588301812840006, -0.0020059923491440442, -9.877950230630133e-06, 222307000000
-0.047092556813553364, 0.0167025325513124, 9.25657518783459e-05, 222312000000
-0.07862241429476388, 0.002039521129692111, 0.00015662722863658317, 222317000000
-0.08295892470100881, 0.020148739998737092, -4.7059952256095125e-06, 222322000000
-0.05873098571940988, 0.005275601492767007, 3.984116148258071e-05, 222327000000
-0.03688019981932411, 0.006499204222638853, 0.0001658607750848867, 222332000000
-0.06311490297906015, -0.007707310781271607, 0.00015377557580091613, 222337000000
-0.050894588804207025, 0.006089819931185682, 0.00022189464953821373, 222342000000
-0.02733452769483858, -0.01582359289207853, -0.00012337034671197915, 222347000000
-0.07816601090596746, 0.0061398343057686225, 1.3088555339290564e-05, 222352000000
-0.06470022388018618, 0.0034539502267046246, -0.00020061780426958707, 222357000000
-0.09000867925359135, 0.01698018171386877, 0.00031842438566959065, 222362000000
-0.05754660333441636, 0.0058305780576646616, -0.00011280947405867171, 222367000000
-0.06451306838134852, 0.027713239571855255, 4.0363859584752207e-05, 222372000000
-0.023454859850809806, 0.004826749375416534, 2.5704240353637722e-05, 222377000000
-0.030240660294437578, -0.008678710271463174, 0.00013068400787098725, 222382000000
-0.045020454803680526, -0.016736451085946787, -0.00011748658222610257, 222387000000
-0.05108756527349859, -0.007475340709569966, -5.00839774428721e-05, 222392000000
-0.0518793310169207, -0.003913395327070077, 9.61651200445378e-05, 222397000000
-0.046457509379614625, -0.006920845255681824, 0.0002417690471914104, 222402000000
-0.08665846104174527, -0.004744957343293544, -7.9053456028795e-05, 222407000000
-0.05870949514019123, 0.015120859130194779, -0.00022336841712040635, 222412000000
-0.05487712230784349, 0.0212193056960994, -0.00020479476168633716, 222417000000
-0.06604945541297887, -0.01978720825347405, -0.00012645912164037878, 222422000000
-0.04655423764583147, 0.04183333494123009, -5.052819218953629e-06, 222427000000
-0.011936616545990625, -0.021946148301178758, -0.00017416014722336647, 222432000000
-0.07295848824244566, -0.012081931891588918, 0.0003753292701286346, 222437000000
-0.03615842201930686, -0.0014778112361593502, 7.142977610869136e-05, 222442000000
-0.06267574812777943, -0.0002569163975788294, -0.00021433794268230317, 222447000000
-0.029786167343435425, -0.027236454128194712, 0.0004923536894868389, 222452000000
-0.062147230969472236, -0.00569364032279678, -0.00021457729045697092, 222457000000
-0.08026804741952145, -0.026083327516662664, -0.00012629856874070024, 222462000000
-0.08161168847609018, -0.008559299401048624, -7.823782436219303e-05, 222467000000
-0.050849864952703494, -0.010093931576016416, 7.895313170701245e-07, 222472000000
-0.03164809042371258, -0.02128122472981229, -6.615427862359516e-05, 222477000000
-0.041246368346972165, -0.012657036079420236, -0.00023508785166575293, 222482000000
-0.0037864055911671773, 0.016172258469033272, 5.594588871449701e-06, 222487000000
-0.024100043812488314, 0.011217728611298432, -9.053733043149234e-05, 222492000000
-0.06914767646317915, -0.015586682138948598, 2.7166420790561548e-05, 222497000000
-0.024555750879355714, 0.023883083168677117, -5.1789615747278986e-05, 222502000000
-0.06435444726622347, -0.0029172452633001123, 0.00029217477207991137, 222507000000
-0.04499517329994951, 0.005957706246078974, -5.6502651991564994e-05, 222512000000
-0.0389391469525169, 0.007125595208551944, 1.9801142200981322e-05, 222517000000
-0.0399110788224651, 0.02913591534775346, 0.0002899957596241065, 222522000000
-0.0662723636527199, 0.006115296177915204, 6.650730594380019e-05, 222527000000
-0.05592756339221795, 0.03043025320421164, 2.3289492519740063e-05, 222532000000
-0.0366627822677265, -0.019474756370699814, -3.3308462864739396e-05, 222537000000
-0.07630913247150913, 0.016922653407032064, 0.0001095769352862689, 222542000000
-0.050667290991199446, 0.0237521220503604, -0.0002873982645288176, 222547000000
-0.06185839247295959, 0.031244284881763177, -9.821871319219885e-05, 222552000000
-0.0773013335410994, -0.006140677735566444, -1.7920338056823662e-05, 222557000000
-0.08570632045011432, 0.014372127093812005, 0.00026071300309338366, 222562000000
-0.042217638924932785, 0.003634532017845998, -0.0003242781397682706, 222567000000
-0.059149115775101235, -0.003110777945906273, 5.702115839990673e-05, 222572000000
-0.07724619633175993, 0.024488533368070275, -0.00013922071333961325, 222577000000
-0.05987641281736454, 0.013418061014160312, -0.0002058403728947708, 222582000000
-0.07039587674517113, -0.005959484731484062, 1.884111801392463e-05, 222587000000
-0.06154608423395147, 0.0064876348427525595, 0.00032228891507988784, 222592000000
-0.0809937992378978, 0.00035499948203786497, -0.00013186037658443586, 222597000000
-0.03620475290986436, 0.0056574190960011995, 0.00017169090689219416, 222602000000
-0.057355505545836634, -0.007247170184502792, -0.00010486652540862956, 222608000000
-0.055741352590434626, -0.00033848931045304, 0.00024706091550189273, 222613000000
-0.06690666272829113, -0.025958710496684082, -0.00010112317261445526, 222618000000
-0.042878497233348, -0.024836630923333124, -8.706906747704613e-06, 222623000000
-0.04890566882078451, -0.011430000725783125, -0.0003326397425123421, 222628000000
-0.0770002605317497, 0.008801978670923813, -5.623236838629575e-05, 222633000000
-0.05955052988867484, 0.013854757088905153, -0.00019252763906262956, 222638000000
-0.05366643759524897, -0.013747754848464222, -7.538997473312079e-06, 222643000000
-0.05133430841295452, -0.026093485132924515, -3.250561856721423e-05, 222648000000
-0.042615073133524556, -0.0027381274434124395, 0.00012878800131876073, 222653000000
-0.06269094107882708, 0.0018373453858181172, -5.589053275722731e-06, 222658000000
-0.0647914088262325, 0.008496530451596951, 0.00016568648180743725, 222663000000
-0.0762853628000836, -0.038856150450091054, 1.8398244449644387e-05, 222668000000
-0.0456318860395421, -0.005184169766631164, 0.00015003805219675087, 222673000000
-0.026574730467794155, -0.007678151720871508, 0.0001084213694339249, 222678000000
-0.05721660070981728, 0.011026624629149875, 0.000337286014685316, 222683000000
-0.028436030256020317, -0.01097500162973306, -0.00010767078138594768, 222688000000
-0.05256525339179115, -0.0014925938695132086, 4.7201531459293977e-05, 222693000000
-0.04935784206995092, 0.013004507436047318, 8.87417689206746e-05, 222698000000
-0.029904788949196494, -0.02131451849454835, 6.922749642542557e-05, 222703000000
-0.07631012283966197, -0.00939774436479668, -8.646335551113507e-05, 222708000000
-0.056464583160025214, 0.0007143234821800226, -3.316105691207363e-05, 222713000000
-0.0845019910258834, 0.04291540166783284, -3.1697015574483684e-05, 222718000000
-0.0642676311119704, -0.007959834101579962, 5.422452138785346e-05, 222723000000
-0.07624281716359484, -0.0014474797903630612, -3.3473136639261716e-05, 222728000000
-0.054651693340882435, 0.01722893265215295, -0.00029951479553243785, 222733000000
-0.060321355234730235, 0.011980919399130978, -0.00012055790020483828, 222738000000
-0.03530501652954844, 0.021761589877312484, -0.00016846782505677079, 222743000000
-0.024299547869835958, 0.010396604695045735, -1.929373317678849e-05, 222748000000
-0.07388614302580572, 0.019715948544968366, 0.00034117202857540896, 222753000000
-0.05351830358808393, 0.01707869318538522, 0.0001885033083304829, 222758000000
-0.06528029475483298, 0.0099503472694106, -0.00025861452752745347, 222763000000
-0.022569721825971924, 0.0024809061490560225, -0.0002052519959626897, 222768000000
-0.043092700526985384, 0.013755372168085565, 0.00015805692349512963, 222773000000
-0.0838054626485038, -0.015382902924082547, -3.9076266744016287e-07, 222778000000
-0.029767430873753935, 0.008148945459240433, -2.4915687534794157e-05, 222783000000
-0.09439648965935643, 0.011828133030242017, 0.0002596266450906086, 222788000000
-0.043439088259056804, -0.015106860019365495, 5.700349868179223e-05, 222793000000
-0.06449928599777383, -0.006237791367429033, -0.000214547037932111, 222798000000
-0.03712190190484618, 0.027829030620832695, -0.00019767056950742407, 222803000000
-0.05808769999260344, 0.037759946036800066, -0.00023393023738695767, 222808000000
-0.05096933110395284, 0.0028948222314526704, 9.170332960541735e-05, 222813000000
-0.07025460308627042, 0.008855954300264078, -0.0001047811516337304, 222818000000
-0.08969287020835476, 0.012662562281764421, -1.8761167395355626e-05, 222823000000
-0.01891985905965727, -0.0016646032010664822, 4.52835252108601e-07, 222828000000
-0.048380335314205596, 0.010132107784946965, -0.00011214989570707339, 222833000000
-0.05526722569165096, 0.03706486622184974, 7.051793984905218e-05, 222838000000
-0.04651580318128691, 0.020662699397686064, -4.3160670708509314e-05, 222843000000
-0.06153514247297317, -0.02583486331360098, 0.00024157828351022397, 222848000000
-0.05311284182726973, -0.003428786738651029, 0.00010944200933910277, 222853000000
-0.05846106470508907, 0.0039307689013283725, -2.633396765839729e-05, 222858000000
-0.04873023105166949, 0.011898840009972999, -5.199411660219556e-05, 222863000000
-0.0743573275900014, -0.006857953122429316, -4.350168510118563e-05, 222868000000
-0.06591663146067449, 0.01130188053540735, -0.00011325850319336262, 222873000000
-0.04182476351447616, -0.016293731474358985, -0.00010690912156980995, 222878000000
-0.05668898282864352, 0.007290900955672928, 0.00028562535636466056, 222883000000
-0.011078498555779095, 0.005535737653613991, 0.00016245193478200704, 222888000000
-0.08493956905170336, 0.012150160938237215, 0.0005220532045294525, 222893000000
-0.06312546306612363, 0.008719251127983196, 0.0001439753583710509, 222898000000
-0.07818171165789387, -0.026467610515156375, -5.0513968782858306e-05, 222903000000
-0.04308257530973902, -0.025132093142642458, -0.0004130022739004048, 222908000000
-0.06019182340502211, -0.020960596953728323, 0.000137894638179775, 222913000000
-0.04662035848334731, -0.03486363321102739, -0.0003264717789946523, 222918000000
-0.06969410014238406, -0.009838594160116395, 0.00011495866959788318, 222923000000
-0.053472572322448716, -0.004104779956945165, 0.00020391839664621631, 222928000000
-0.05435071147817912, 0.006939477217319679, 0.00017075294173529305, 222933000000
-0.08241869744028642, -0.0030152690713759296, -4.9385804887466344e-05, 222938000000
-0.037296176827377445, 0.010354676407224444, 0.0005333435894983667, 222943000000
-0.07394619499461011, 0.007531923107524805, -0.00035529525638024954, 222948000000
-0.04746573029850811, -0.03845765868480471, 3.180799733529013e-05, 222953000000
-0.06476177964778299, 0.01797130173422377, 0.00030149340633245017, 222958000000
-0.06604318475860743, -0.004921491027124148, -8.307211764342153e-05, 222963000000
-0.05770477757098562, -0.0111644265692776, 2.185374664575607e-05, 222968000000
-0.08342321347040578, -0.012136782314864251, 1.6339587961555742e-05, 222973000000
-0.018998145242678538, 0.005792039646672151, 1.436675653327213e-06, 222978000000
-0.07294088863929395, -0.03169276227864233, -0.000309964287987278, 222983000000
-0.036824836063943406, -0.005896015483715278, 0.00011649364199866114, 222988000000
-0.0475937836550391, -0.037351214950215546, -5.973118848598312e-05, 222993000000
-0.05111495536327074, -0.0077035206184969665, 4.379394816263021e-05, 222998000000
-0.04568790297962888, -0.006987006461193889, 0.00022154972440753307, 223003000000
-0.04028757522811528, -0.013034121433168146, 4.3744260524094824e-05, 223008000000
-0.043061521004827824, -0.00701547014936838, -0.0001433145926966363, 223013000000
-0.06182476328619995, -0.029739414133982553, -0.00013738175659152194, 223018000000
-0.07310015653369736, 0.003944701511301153, -0.0001647511604696949, 223023000000
-0.0541706644504105, -0.0313402076730569, 0.00018709037796629002, 223028000000
-0.05616582564481351, 0.01283887814116565, 0.0001861967263461227, 223033000000
-0.027942713866244927, 0.005041542362407238, 0.00027597224910109, 223038000000
-0.08608486416751734, 0.01512143817666057, 0.00020636904405642534, 223043000000
-0.08229344474108774, 0.006421964310205213, 0.00023867071596064062, 223048000000
-0.07702388086109302, -0.009290674147712412, -0.00019967656641785154, 223053000000
-0.023324117122763187, 0.015216154717183107, 0.00034215923212749006, 223058000000
-0.0471968016872615, -0.005991396344568638, -2.944584997649236e-05, 223063000000
-0.04069323319389405, 0.00012312747073873294, 0.00043920042003160633, 223068000000
-0.045801435523954576, 0.005565202126125899, -0.00016249040951219927, 223073000000
-0.03248196692822251, 0.03960519512191635, 1.680269089335309e-05, 223078000000
-0.06121901212537601, 0.009090984653398066, 0.0003075411110065992, 223083000000
-0.08513582120951414, -0.007106861617498917, -0.00014212466259216357, 223088000000
-0.07315031933912884, 0.010875554886793547, 8.915222986114703e-05, 223093000000
-0.08249659318481446, -0.00420502307546944, -0.00030096174102382567, 223098000000
-0.08621985109802355, 0.0003366985351738372, 0.00014605251204801844, 223103000000
-0.04325789246673702, -0.0300015027772579, -0.0004024402136595851, 223108000000
-0.06859925696988808, -0.012508006044283948, -0.00011313110001264378, 223113000000
-0.0811800118652565, -0.0020120457095468202, -2.0582157913593318e-05, 223118000000
-0.05515626747468255, 0.028049633039050215, 0.00035437485452258796, 223123000000
-0.060353252373684135, 0.01530499979585945, 6.18857951150234e-05, 223128000000
-0.036986007368789896, -0.012587566346965189, 0.00019320968404232247, 223133000000
-0.07396392317578895, -0.01952375759065722, -0.000396789408367773, 223138000000
-0.05884203605706627, 0.007380753110732304, -9.558539789752465e-05, 223143000000
-0.04532220267399073, -0.015124804277639382, 0.00021610129860475392, 223148000000
-0.011796933816273635, 0.02997546673674382, 5.3739457675403796e-05, 223153000000
-0.02203749805996457, -0.014977958469673456, 0.00013248170705260133, 223158000000
-0.07633784684814929, -0.04555493732423703, 3.700501736546917e-05, 223163000000
-0.04787682426638275, -0.012451728211672295, -3.883102814144253e-05, 223168000000
-0.0592377472594818, -0.003363775970886878, -0.0001311207999779181, 223173000000
-0.036776525873358626, 0.013760163402828322, -0.00010694295869191126, 223178000000
-0.10855563259546504, 0.0046165701084248485, 0.00025694590548101646, 223183000000
-0.04918176339308888, -0.010611526607994083, 5.7831984360329124e-05, 223188000000
-0.041153909786744734, -0.019869849259438806, 5.279204295809662e-05, 223193000000
-0.040307908065636305, -0.012912190594442407, 9.29824087142838e-06, 223198000000
-0.08358419437714901, -0.004176449565222711, 0.00018697995550167058, 223203000000
-0.04441533622013355, 0.004076398808437822, 4.53686491210668e-05, 223208000000
-0.05918448073706223, -0.012760102017193412, -0.00016809241032903667, 223213000000
-0.053806982076479805, 0.0031824200849409363, -0.00012918039793532278, 223218000000
-0.0412043228612879, 0.019548234538811174, 2.9456118647343215e-07, 223223000000
-0.07833009324502493, -0.012199628593351356, 1.8378000694679515e-05, 223228000000
-0.056765780287244695, -0.00213316002588698, -6.256739470472412e-05, 223233000000
-0.06675781399615648, 0.02731612941505119, 0.00038092641759105843, 223238000000
-0.04517174706696008, -0.006423865937571917, -0.0002099454166484069, 223243000000
-0.05770015149162935, 0.02023447103881716, 0.0004153421361340551, 223248000000
-0.057660654596793315, 0.003922274700595318, 0.0003884066933652504, 223253000000
-0.06769942731804564, 0.01650376360035783, 0.00011263696026592492, 223259000000
-0.03924399547250897, 0.006812714400107063, 0.00022674860072208092, 223264000000
-0.04502528786325187, -0.012751890386965508, -5.863399289887082e-05, 223269000000
-0.07688434205706061, -0.028062142885920627, -0.0003385294669900944, 223274000000
-0.04977190756527255, 0.004581995373316956, 4.7693100737815556e-05, 223279000000
-0.05952220422333662, -0.005932449495539576, -1.9644717574813202e-05, 223284000000
-0.04309813069512793, -0.02159624023101298, -6.390627232587311e-05, 223289000000
-0.06808140023934306, 0.014829661908603858, -0.00024420211338703783, 223294000000
-0.020017533674434464, -0.01764551485876692, 0.00018036086787418925, 223299000000
-0.07259753621305476, -0.018669142549626525, 7.395845267978442e-05, 223306000000
-0.07240531919571352, 0.01541761579637052, 5.7600780561381634e-05, 223311000000
-0.07801683441110753, 0.03710926463011819, 6.983209697972573e-05, 223316000000
-0.07676544975884254, -0.014224234060738946, -0.00039470216328123774, 223321000000
-0.053038245669520555, 0.01959430794590529, 0.0002911653079517296, 223326000000
-0.06597819749074588, -0.010103912155856272, -2.395980257014705e-05, 223331000000
-0.08811584272839926, -0.0076466644470089265, -0.00013183859744194897, 223338000000
-0.06084946522904775, 0.03052620638804056, 0.00018335875643904354, 223343000000
-0.06883053339464448, 0.010607525891986538, -0.00043205246373767325, 223348000000
-0.06194078900978929, 0.027133276340645204, 8.47523901535218e-05, 223353000000
-0.0683941260198426, 6.695777597845389e-05, -0.00018911311704455935, 223358000000
-0.054883235032145414, -0.0015843430490945834, -0.0006832161762220201, 223363000000
-0.07880284738600411, 0.010788426976596292, -0.00034586993376112, 223368000000
-0.06078306510235263, 0.006475738177298844, -7.45014236886471e-05, 223373000000
-0.04665958118097629, -0.009510859255440055, -0.0006771682272149454, 223378000000
-0.06463658004003571, 0.008422451180671055, 0.0002764334556195438, 223383000000
-0.03592880242845325, 0.008706410367944511, -0.00026283843015682275, 223388000000
-0.04532062220178664, -0.02062925967269206, -0.00031422251728728437, 223393000000
-0.05984083124635168, 0.004973817506208993, 9.013277777111461e-05, 223398000000
-0.07774842867470856, 0.004965005389614708, -0.0004216356286664677, 223403000000
-0.048661773809110964, -0.001317601217705149, 1.1770951386868693e-06, 223408000000
-0.07901174767194302, -0.021896270831467488, -0.0003053296284989779, 223413000000
-0.05456493211663235, 0.008266234021542434, 0.00022594649135625457, 223418000000
-0.07338457182914576, 0.041685926337243315, 8.169188564942822e-06, 223423000000
-0.05489397787113807, -0.012659915515608937, 4.27266679478321e-07, 223428000000
-0.05804517885784395, 0.025572299966983635, -0.00036377382298664033, 223433000000
-0.04299016551246256, 0.013887503942868666, 1.621248241046281e-05, 223438000000
-0.05557457467498978, -0.026460658219181477, -0.00016092381476172054, 223443000000
-0.05289694709525803, 0.018948061361193393, 6.027162553664858e-05, 223448000000
-0.08927456343894156, 0.0010461137224146487, -8.861684100834157e-05, 223453000000
-0.0297226903651032, -0.058366731841427474, 4.9565762408944205e-06, 223458000000
-0.03400867615746237, 0.002665802949319285, 0.0002004190014898636, 223463000000
-0.07214915271049982, -0.00016097075365985693, -0.0001175168303891901, 223468000000
-0.06316616443078092, -0.019149561610438914, 0.0001574406477320753, 223473000000
-0.06118403813774168, 0.003622241818711747, -6.609695757169347e-05, 223478000000
-0.05570276630692787, 0.03233946710661544, 0.00013379550507562502, 223483000000
-0.08199881024212531, -0.014701617687299159, 0.0001758020618638492, 223488000000
-0.05720352112277865, 0.026206430717780893, 0.0001752916115197939, 223493000000
-0.04086703868987565, 0.011794905788723322, 5.092159350102614e-05, 223498000000
-0.05404332501234167, -0.015335489074890872, 0.00014696691085704347, 223503000000
-0.07878768141562556, 0.00719476445933658, 0.00014535873218894232, 223508000000
-0.06954232812054328, 0.004122751154573251, 0.00014910955205724809, 223513000000
-0.025051431471504085, 0.009342725964789442, -9.67735828061578e-06, 223518000000
-0.045591970884688485, -0.027589534214266506, -5.2176013752534115e-05, 223523000000
-0.03416234484007796, -0.03896973778830368, 0.0004930802793054028, 223528000000
-0.09581539096313574, 0.011808334788425648, -2.512985489865114e-05, 223533000000
-0.020596538279299977, -0.008859162871024895, -8.383773338059858e-05, 223538000000
-0.0489522180136631, -0.021378214423448696, 0.0002728953808296989, 223543000000
-0.06254735483512736, -0.005939381882643949, 0.00027230979257051723, 223548000000
-0.0792176333637342, 0.009325800051389067, 0.0001884253995845684, 223553000000
-0.0590920408196126, -0.01647542994219018, 2.2279879216762788e-05, 223558000000
-0.05542618204480226, -0.030427629630488243, 0.00011265706142892812, 223563000000
-0.04794392346949303, 0.0001431802646606272, -0.0001276732778801987, 223568000000
-0.0730846066028148, 0.01876370076232523, -0.00019769616544685183, 223573000000
-0.06332992255769944, -0.03066800628057472, -8.071964242274194e-05, 223578000000
-0.0626404325459278, -0.008983213275157864, 7.411366586441771e-05, 223583000000
-0.06850018965366568, 0.012082739057581603, 0.00011893795720556904, 223588000000
-0.06854990219767072, -0.015441763171282364, 0.00020999074592551438, 223593000000
-0.07198996394753461, 0.013851471810532062, -4.448158143190596e-05, 223598000000
-0.059513235199154274, 0.023171143395722186, 8.744958691550376e-05, 223603000000
-0.08155944771566198, 0.015666809911559127, 3.473488848680532e-05, 223608000000
-0.04904100989532516, 0.015275167574233951, 0.0004192299813046466, 223613000000
-0.05459478747587167, 0.009046878827518078, -0.00014541747954727028, 223618000000
-0.0504205396590676, -0.025031599872143935, -8.443609140342286e-05, 223623000000
-0.052645577991953706, -0.017865588796079638, 0.00024112781687952715, 223628000000
-0.030729254706326703, -0.007346002682004955, 0.0001184149173071062, 223633000000
-0.05224653874398231, 0.0004793928897616315, -0.0004363261557244684, 223638000000
-0.07632699078719865, -0.01413642570797341, -8.294316913889836e-05, 223643000000
-0.08064258255594622, 0.008168033173012436, 7.3274049389251584e-06, 223648000000
-0.055887035805150094, 0.01069771332458404, -0.00022962189137091092, 223653000000
-0.06912289059483599, 0.013457932668857444, 0.00022954818070537072, 223658000000
-0.044679016015554254, 0.037130759729307294, -0.00025877634586563757, 223663000000
-0.03360562564436567, -0.022846343426503084, 0.00018765135035767364, 223668000000
-0.0606316627034873, -0.031107534875070657, 6.495096933523165e-06, 223673000000
-0.030204734106165417, 0.00821345275106251, -0.00028121069435096225, 223678000000
-0.054697096213038005, -0.014097548879334208, 0.00035565314961344467, 223683000000
-0.05657276531536335, 0.007865784024269839, -1.5195505281012492e-05, 223688000000
-0.03952105918164315, 0.02191217059925575, 0.00016599485428697662, 223693000000
-0.033644858897392396, 0.024993764771786522, 0.0001376877613123725, 223698000000
-0.06605670718026169, 0.0032038360709573084, -0.0001247905586422155, 223703000000
-0.07483498828409987, 0.022682990947350695, 7.277700930223762e-05, 223708000000
-0.04019188990594078, 0.002509983758557163, -8.053654933856238e-05, 223713000000
-0.06378513958614158, -0.03210568128791844, -0.00018594262940793815, 223718000000
-0.0608641412738454, 0.021196485889599295, 0.00017832029226230012, 223723000000
-0.05945689088363463, -0.017505095081294438, 8.034921913492388e-05, 223728000000
-0.05552440607315264, 0.023471334050507404, 0.00015690358113545357, 223733000000
-0.05466155077648826, 0.003770722582195674, -0.0002941986188446333, 223738000000
-0.053408297781293815, 0.023179914497192037, 4.938301257611001e-05, 223743000000
-0.052050049933318396, 0.003261699665140764, -0.0001556924819038922, 223748000000
-0.04546087523108078, 0.001119136454717007, 2.8034888968828173e-05, 223753000000
-0.034189023334553204, 0.0342467595050335, 7.32238974729492e-05, 223758000000
-0.040841777650966915, 0.012464489843163113, 0.00015646532121527703, 223763000000
-0.04351723525570607, 0.002480595737558122, -6.927605710537382e-05, 223768000000
-0.05742480377808122, -0.0006890723692807587, 0.0001782569725578003, 223773000000
-0.028286921723480293, 0.022784881551558323, -4.423385630110832e-05, 223778000000
-0.030616822732205607, 0.00502228056620577, 0.00016985811960927523, 223783000000
-0.07453173054512255, -0.01818099215137205, 8.981574783143144e-06, 223788000000
-0.06689788029099461, -0.005776089247321573, -0.000137640126379331, 223793000000
-0.0343972003301369, -0.009910861873810623, 0.00015758606047176662, 223798000000
-0.05316213418195942, 0.002256481535474619, 0.00010725468538522831, 223803000000
-0.02842211204641789, -0.005325548096789734, 0.0001897021429706296, 223808000000
-0.09095216313047988, 0.01386588780931996, -5.331322590589316e-05, 223813000000
-0.05392120790273475, 0.0043975611930402725, -0.0001271180442355027, 223818000000
-0.04897729312089696, -0.003580784286346779, 0.0001353815188529023, 223823000000
-0.04929519357335349, -0.012096999569513898, -0.00015404034573616578, 223828000000
